Time,AccelX,AccelY,AccelZ,GyroX,GyroY,GyroZ
1265143,-4648,9244,-11676,1049,1639,-1046
1265154,-4636,9144,-11936,1054,1271,-1097
1265166,-4636,8784,-12172,966,947,-863
1265178,-4832,8544,-12212,881,155,-418
1265190,-5056,8692,-11972,758,-213,-189
1265202,-5112,8592,-11856,617,-168,-299
1265214,-5064,8460,-11624,364,282,-412
1265226,-5012,8572,-11720,245,451,-370
1265238,-5160,8428,-11904,190,520,-204
1265250,-5096,8456,-11892,172,644,4
1265287,-4552,8628,-11972,-97,1182,291
1265299,-4492,8584,-12068,42,701,748
1265311,-4396,8812,-11660,44,401,966
1265323,-4416,9004,-11384,-161,544,544
1265335,-4392,9264,-11352,-450,777,-154
1265347,-4628,9236,-11228,-705,977,-766
1265359,-4456,9376,-11120,-975,1219,-1088
1265371,-4484,9588,-10996,-1273,1294,-1506
1265383,-4440,9972,-10932,-1532,1514,-2047
1265395,-4572,10360,-10800,-1729,1840,-2619
1265414,-4688,11256,-10496,-2703,2881,-4714
1265426,-4948,11868,-10636,-3375,3683,-6475
1265438,-5412,12488,-10800,-3983,3980,-8207
1265450,-5660,13140,-10580,-4729,4225,-10022
1265462,-6244,13500,-10052,-5874,4413,-12099
1265474,-6904,14152,-8996,-7225,4774,-14771
1265486,-7772,14996,-8200,-9104,5506,-18149
1265498,-8436,15588,-6920,-11771,6402,-22400
1265510,-9112,15656,-5888,-14457,6949,-26693
1265522,-9876,15528,-4572,-16756,6382,-30309
1265540,-11132,15268,-2748,-18900,5956,-32768
1265552,-11844,15000,-2044,-19039,5203,-32768
1265564,-11904,13632,-1588,-17234,5359,-32294
1265576,-13096,13376,-1132,-14708,5011,-28475
1265588,-13584,13296,-416,-12158,5256,-24935
1265600,-13520,12936,-340,-10067,7764,-22134
1265612,-13484,12708,-712,-7855,10973,-20135
1265624,-12640,12184,-1496,-5877,14354,-18425
1265636,-11436,11796,-2460,-4284,17846,-16701
1265648,-9972,11360,-3688,-2828,20331,-15100
1265666,-6856,10520,-6124,-716,21977,-12692
1265678,-4788,10188,-7472,246,21921,-11019
1265690,-2548,10232,-8972,422,21843,-10571
1265702,-548,9716,-10620,215,20709,-11317
1265714,532,9692,-12060,-1196,18891,-12947
1265726,944,9656,-13176,-3065,16339,-15327
1265738,1148,9740,-13684,-5302,14798,-17664
1265750,668,9860,-14140,-7370,14357,-19962
1265762,240,9548,-14684,-8685,13896,-21037
1265774,-204,9508,-14980,-9323,13312,-20876
1265792,-936,9640,-14824,-10323,12709,-20652
1265804,-1032,9712,-14948,-10680,12761,-20379
1265816,-1200,9852,-14804,-10734,12852,-19958
1265828,-1096,9768,-14632,-10554,12830,-19326
1265840,-748,9772,-14268,-10378,13096,-18953
1265852,-876,9904,-14152,-10269,13062,-18918
1265864,-576,9920,-13880,-10502,12868,-18680
1265876,-524,9804,-13828,-11007,12422,-17959
1265888,-532,9916,-13652,-11060,11810,-16915
1265900,-392,9828,-13320,-10560,11061,-15656
1265918,-408,9904,-12792,-9642,10637,-13948
1265930,-460,10192,-12660,-9342,10783,-13290
1265942,-500,10080,-12600,-9258,10761,-12707
1265954,-380,9788,-12856,-9080,10141,-12147
1265966,-280,9764,-12872,-8645,9185,-11462
1265978,-424,9696,-13076,-7880,7958,-10891
1265990,-564,9700,-13028,-7221,6810,-10329
1266002,-812,9984,-13072,-6579,6070,-9979
1266014,-980,10248,-13288,-6130,5624,-9666
1266026,-1064,10364,-13308,-5531,5507,-9516
1266044,-1224,10256,-13760,-4597,5548,-9288
1266056,-1084,9904,-13972,-4043,5052,-8975
1266068,-1040,9564,-14052,-3696,4096,-8452
1266080,-1252,9396,-13796,-3501,3136,-8166
1266092,-1444,9196,-13512,-3527,2557,-8555
1266104,-1764,8892,-12752,-4013,2130,-9433
1266116,-2348,8896,-12216,-4611,1924,-10776
1266128,-2792,8908,-11516,-5473,2044,-12499
1266140,-3412,8780,-10996,-6373,2070,-14314
1266152,-4148,8620,-10492,-6932,2034,-15623
1266168,-5012,8412,-10116,-7288,1866,-16400
1266180,-5624,8204,-10284,-7011,1263,-15705
1266192,-6068,8136,-9824,-6381,274,-14378
1266204,-6400,8208,-9460,-5695,-720,-13253
1266216,-7264,8312,-9444,-4871,-838,-12045
1266228,-7584,8252,-9508,-4151,-1180,-10914
1266240,-7836,8296,-9144,-3424,-630,-9813
1266252,-8124,8268,-9348,-2721,1,-8668
1266264,-8180,8224,-9784,-2116,820,-7389
1266276,-8268,8284,-10308,-1463,1421,-5930
1266294,-8012,8168,-10940,-221,2520,-3724
1266306,-7680,8008,-11460,711,2653,-28,-5996,6180,-10988,31,823,-411
1266480,-6048,6024,-11000,385,720,81
1266492,-6312,5820,-10852,574,259,765
1266504,-6236,6104,-10764,919,264,1383
1266516,-6564,6432,-10960,1098,558,1443
1266528,-7132,7036,-11312,1246,721,1040
1266546,-7872,7384,-12144,1434,504,653
1266558,-8288,7372,-12632,2158,613,944
1266570,-8784,7068,-13216,2927,340,1864
1266582,-8888,7044,-13232,3684,-467,3129
1266594,-8580,6708,-12968,4040,-565,4279
1266606,-8044,6228,-12984,4237,156,5143
1266618,-7384,5928,-13084,4046,1638,-5996,6180,-10988,31,823,-411
1266480,-6048,6024,-11000,385,720,81
1266492,-6312,5820,-10852,574,259,765
1266504,-6236,6104,-10764,919,264,1383
1266516,-6564,6432,-10960,1098,558,1443
1266528,-7132,7036,-11312,1246,721,1040
1266546,-7872,7384,-12144,1434,504,653
1266558,-8288,7372,-12632,2158,613,944
1266570,-8784,7068,-13216,2927,340,1864
1266582,-8888,7044,-13232,3684,-467,3129
1266594,-8580,6708,-12968,4040,-565,4279
1266606,-8044,6228,-12984,4237,156,5143
1266618,-7384,5928,-13084,4046,1637,5825
1266630,-6580,5696,-13236,3670,2478,6568
1266642,-5456,5740,-13316,3484,2884,7182
1266654,-4740,5984,-13500,3602,2511,7304
1266672,-3748,5860,-13704,3330,1466,6950
1266684,-3156,5864,-13684,2987,1111,6754
1266696,-3052,5820,-13692,2896,915,6579
1266708,-2992,6024,-13792,2724,403,6334
1266720,-2828,6216,-13704,2537,-50,5631
1266732,-3172,6324,-13772,2050,-203,4682
1266744,-3568,6212,-13304,1329,-283,3523
1266756,-3800,6132,-13048,603,-110,2219
1266768,-4144,5896,-12608,121,50,1202
1266780,-4516,6028,-12540,-267,412,509
1266798,-4992,6280,-12340,-505,842,-215
1266810,-5384,6252,-12472,-510,1356,-105
1266822,-5388,6204,-12496,-157,1166,532
1266834,-5348,6464,-12536,36,1081,1271
1266846,-5180,6420,-12236,73,959,1664
1266858,-4932,6528,-12104,-46,766,2010
1266870,-4652,6692,-11948,-224,520,2293
1266882,-4260,6728,-11472,-458,286,2474
1266894,-4156,6928,-11084,-1013,550,2142
1266906,-4388,7276,-10864,-1728,413,1247
1266922,-5036,8064,-10712,-2167,1619,-278
1266934,-5512,8120,-10812,-2072,1130,-1129
1266946,-5984,8268,-10980,-1829,1635,-1610
1266958,-6492,7940,-11800,-1110,1235,-1054
1266970,-6336,7276,-12268,-50,373,860
1266982,-5836,6748,-12860,1171,-478,3568
1266994,-5268,6496,-12872,1918,-352,5760
1267006,-4340,6136,-13324,2368,249,7128
1267018,-3376,5856,-14100,2504,626,8087
1267030,-2216,5720,-14600,2370,818,8570
1267048,-1144,6324,-15108,876,1560,7571
1267060,-908,6572,-15244,-664,2028,5583
1267072,-788,6964,-15272,-2773,1925,3527
1267084,-852,7492,-14720,-4656,1169,1065
1267096,-1396,8116,-14408,-6036,517,-1245
1267108,-1760,8296,-13732,-6546,-296,-2577
1267120,-2652,8668,-13096,-6998,-595,-3046
1267132,-3276,9076,-12440,-7171,-1042,-3270
1267144,-3776,9268,-11824,-7107,-1053,-3363
1267156,-4428,9744,-11364,-6896,-1119,-3284
1267174,-4652,10140,-10640,-6279,-1188,-2659
1267186,-4944,10632,-10360,-5561,-871,-2040
1267198,-5188,10876,-10520,-4662,-802,-1423
1267210,-5396,11124,-10684,-3556,-1110,-652
1267222,-5308,10868,-11000,-2245,-1561,482
1267234,-5324,10648,-11040,-920,-2200,1701
1267246,-5456,10528,-11064,-114,-2466,2557
1267258,-5400,10180,-11044,323,-2217,2839
1267270,-5160,9660,-10896,268,-1831,2772
1267282,-4864,9276,-10604,-3,-1234,2604
1267300,-4416,9096,-10512,-671,-506,2323
1267312,-4408,9380,-10520,-1052,-265,2006
1267324,-4248,9552,-10252,-1392,-31,1589
1267336,-4164,9784,-10316,-1583,228,1091
1267348,-4196,10052,-10360,-1561,-78,659
1267360,-4216,10252,-10264,-1351,-335,337
1267372,-4344,10276,-10392,-825,-637,357
1267384,-4444,10296,-10348,-324,-916,564
1267396,-4616,10340,-10580,48,-1235,607
1267408,-4748,10240,-10636,244,-1318,420
1267426,-4824,10212,-11016,538,-1282,375
1267438,-4976,10276,-11240,694,-1349,431
1267450,-5232,10232,-11324,717,-1332,299
1267462,-5508,10292,-11324,702,-1074,-4
1267474,-5496,9908,-11132,595,-1028,-270
1267486,-5660,9704,-11164,478,-895,-416
1267498,-5960,9496,-11348,387,-787,-226
1267510,-6072,9348,-11060,195,-651,187
1267522,-5916,9428,-10900,-57,-189,377
1267534,-5688,9496,-11044,-302,315,270
1267552,-5616,9512,-10928,-527,549,424
1267564,-5336,9464,-10700,-497,547,632
1267576,-5312,9720,-10696,-299,618,856
1267588,-5128,9796,-10728,131,599,1138
1267600,-5284,9692,-10872,581,584,1465
1267612,-4880,9668,-11012,998,510,1861
1267624,-4988,9496,-11140,1441,442,2430
1267636,-4552,9236,-11424,1984,158,2996
1267648,-4564,9024,-11772,2427,-222,3859
1267660,-4236,8868,-11952,2652,-644,4615
1267676,-3880,8932,-11960,2654,-948,4555
1267688,-3716,8724,-11800,2398,-732,3875
1267700,-3660,8748,-11892,1999,-585,3166
1267712,-3584,8596,-11912,1632,-477,2489
1267724,-3492,8340,-11856,1453,-605,2022
1267736,-3856,8276,-11604,1278,-695,1636
1267748,-4028,8368,-11556,1054,-915,1259
1267760,-4300,8400,-11188,954,-1006,941
1267772,-4644,8440,-11052,973,-748,850
1267784,-4944,8388,-11288,1129,-886,965
1267802,-5268,8368,-11148,1301,-754,1424
1267814,-5388,8312,-11328,1483,-674,1851
1267826,-5256,8140,-11292,1588,-586,2496
1267838,-5136,7960,-11424,1715,-610,2980
1267850,-4956,8164,-11720,1871,-450,3085
1267862,-4864,8296,-12092,1869,-328,3224
1267874,-4740,8356,-12440,1812,-243,3511
1267886,-4408,8212,-12776,1815,-537,3777
1267898,-4208,8288,-13088,1840,-775,4073
1267910,-4088,8248,-13240,1906,-1090,4416
1267928,-3924,8444,-13280,1819,-1248,4941
1267940,-3700,8708,-13268,1782,-1100,5103
1267952,-3468,8792,-13288,1624,-928,5008
1267964,-3516,9004,-13556,1233,-916,4792
1267976,-3324,8952,-13540,969,-1039,4545
1267988,-3452,8972,-13512,923,-1154,4458
1268000,-3304,8940,-13160,927,-1456,4406
1268012,-3296,8908,-13040,999,-1528,4381
1268024,-3364,8720,-12840,1096,-1623,4297
1268036,-3252,8844,-12424,988,-1326,4090
1268054,-3228,9100,-12016,452,-870,3569
1268066,-3304,9048,-11984,-213,-742,3060
1268078,-3156,9064,-11664,-876,-682,2554
1268090,-3136,9200,-11580,-1590,-1049,1932
1268102,-3492,9356,-11336,-2134,-1401,1150
1268114,-3780,9556,-10976,-2209,-1736,276
1268126,-4032,9468,-10812,-2242,-1957,-237
1268138,-4232,9480,-10528,-2179,-2282,-522
1268150,-4656,9368,-10196,-2012,-2207,-819
1268162,-4996,9472,-9988,-2102,-2107,-1083
1268180,-5300,9484,-9572,-1987,-1854,-1332
1268192,-5508,9500,-9664,-1804,-1499,-1368
1268204,-5668,9676,-9628,-1603,-1290,-1354
1268216,-5880,9688,-9696,-1338,-980,-1328
1268228,-5924,9464,-9880,-907,-952,-1078
1268240,-6040,9328,-9908,-549,-1240,-643
1268252,-6020,9268,-9984,-389,-1418,-365
1268264,-6144,9356,-10124,-190,-1516,-184
1268276,-6212,9288,-10332,50,-1461,-155
1268288,-6200,9380,-10316,223,-869,-167
1268304,-6272,9024,-10412,233,-330,-315
1268316,-6240,9092,-10792,384,-47,-113
1268328,-6184,8936,-10868,708,70,306
1268340,-5884,8832,-10960,953,135,860
1268352,-5884,8860,-10984,945,275,998
1268364,-5800,8856,-11216,824,497,806
1268376,-5384,8624,-11036,774,562,577
1268388,-5040,8420,-10944,708,634,456
1268400,-4964,8280,-11064,728,550,473
1268412,-5100,8180,-11120,626,529,411
1268430,-4964,8132,-11136,326,598,120
1268442,-5048,8140,-11248,203,700,72
1268454,-5056,8148,-11188,131,677,118
1268466,-5196,8420,-11344,324,806,263
1268478,-4952,8444,-11288,499,836,469
1268490,-4844,8528,-11404,541,998,567
1268502,-4724,8544,-11608,820,714,790
1268514,-4628,8448,-11716,927,635,1023
1268526,-4468,8420,-11860,1110,564,1190
1268538,-4340,8448,-12060,1161,432,1375
1268556,-4216,8344,-12296,1017,161,1169
1268568,-4316,8348,-12340,826,166,960
1268580,-4292,8328,-12668,616,326,837
1268592,-4160,8196,-12764,509,335,929
1268604,-4276,8200,-13068,516,171,1144
1268616,-4204,8168,-12988,85,17,1220
1268628,-4376,8332,-12944,-300,90,934
1268640,-4180,8272,-12864,-648,164,715
1268652,-4236,8504,-12848,-844,115,653
1268664,-4096,8696,-12572,-1064,-58,530
1268682,-4300,8960,-12700,-1049,-246,609
1268694,-4256,9032,-12572,-1059,-257,700
1268706,-4200,9076,-12468,-1119,-419,691
1268718,-4292,9164,-12332,-1115,-591,739
1268730,-4432,9216,-12196,-1345,-485,588
1268742,-4572,9124,-12116,-1562,-346,362
1268754,-4444,9180,-11964,-1776,-290,300
1268766,-4500,9260,-12096,-1926,-389,440
1268778,-4580,9212,-11808,-1913,-418,673
1268790,-4328,9296,-11616,-2017,-155,712
1268808,-4296,9628,-11524,-2006,-57,512
1268820,-4200,9640,-11572,-1977,-96,443
1268832,-4272,9660,-11496,-1870,-291,405
1268844,-4120,9748,-11360,-1797,-286,297
1268856,-4064,9652,-11140,-1713,-247,154
1268868,-3996,9672,-10976,-1504,-490,158
1268880,-4048,9764,-10896,-1256,-694,213
1268892,-4200,9816,-10824,-1008,-768,59
1268904,-4364,9988,-10796,-941,-835,-270
1268916,-4324,9928,-10568,-999,-747,-760
1268932,-4636,9784,-10404,-1020,-731,-1424
1268944,-4604,9528,-10440,-776,-1063,-1428
1268956,-5008,9544,-10428,-625,-1194,-1283
1268968,-5224,9840,-10472,-606,-1285,-1373
1268980,-5360,9696,-10272,-587,-1114,-1616
1268992,-5452,9712,-10512,-577,-1040,-1735
1269004,-5668,9792,-10712,-449,-1120,-1627
1269016,-5780,9800,-10444,-346,-1055,-1531
1269028,-6080,9804,-10416,-292,-729,-1445
1269040,-5952,9808,-10552,-175,-580,-1410
1269058,-5956,9600,-10728,28,-492,-1041
1269070,-6040,9632,-10620,198,-461,-754
1269082,-5888,9536,-10636,322,-412,-635
1269094,-5908,9344,-10736,411,-464,-547
1269106,-5784,9140,-10904,415,-534,-298
1269118,-5720,9140,-10808,412,-623,-59
1269130,-5728,9064,-10748,624,-631,94
1269142,-5612,9184,-10940,726,-426,149
1269154,-5548,9004,-11156,888,-505,195
1269166,-5592,8936,-11192,897,-606,287
1269184,-5372,8684,-11180,766,-564,104
1269196,-5404,8772,-11128,449,-419,-364
1269208,-5524,8512,-11156,272,-464,-793
1269220,-5548,8688,-11052,85,-465,-972
1269232,-5472,8632,-10852,-47,-521,-1087
1269244,-5712,8580,-10636,-48,-551,-1231
1269256,-5860,8608,-10484,-268,-405,-1490
1269268,-6000,8648,-10484,-353,-193,-1758
1269280,-6276,8608,-10520,-289,-186,-1797
1269292,-6496,8720,-10404,-137,-65,-1671
1269310,-6568,8620,-10368,44,-46,-1273
1269322,-6552,8584,-10544,304,-7,-842
1269334,-6632,8488,-10500,526,22,-457
1269346,-6552,8680,-10852,629,32,-310
1269358,-6316,8772,-10736,618,212,-467
1269370,-6364,8628,-10896,770,346,-426
1269382,-6060,8536,-11124,871,447,-116
1269394,-6008,8584,-11120,1011,265,-16
1269406,-5832,8452,-11228,1053,300,-44
1269418,-5860,8208,-11712,1173,119,256
1269436,-5772,8324,-11868,958,264,436
1269448,-5696,8316,-11860,686,437,165
1269460,-5792,8348,-12116,339,474,-44
1269472,-5672,8456,-12088,176,501,11
1269484,-5488,8696,-12184,233,551,246
1269496,-5452,8856,-12336,434,386,405
1269508,-5072,8720,-12164,662,203,658
1269520,-4992,8632,-12440,801,2,823
1269532,-4916,8504,-12204,580,-44,610
1269544,-4876,8592,-12196,238,-172,66
1269560,-4764,8476,-12068,-233,-532,-639
1269572,-5084,8404,-11716,-382,-778,-875
1269584,-5156,8428,-11720,-480,-746,-1013
1269596,-5288,8364,-11656,-457,-764,-1132
1269608,-5568,8388,-11344,-455,-766,-1266
1269620,-5628,8228,-11056,-621,-701,-1471
1269632,-5828,8228,-10956,-771,-724,-1823
1269644,-5996,8176,-10756,-921,-572,-2155
1269656,-6408,8100,-10780,-1196,-466,-2384
1269668,-6652,8220,-10452,-1172,-547,-2499
1269686,-6940,8224,-10520,-679,-642,-2052
1269698,-7004,8208,-10500,-223,-765,-1589
1269710,-7192,8136,-10596,-40,-802,-1243
1269722,-7188,8068,-10456,81,-661,-1175
1269734,-7088,7960,-10520,117,-504,-1155
1269746,-7236,7864,-10704,123,-75,-1038
1269758,-7436,7852,-10752,89,-120,-881
1269770,-7332,7844,-11024,-71,-208,-929
1269782,-7364,7840,-10764,-308,16,-1125
1269794,-7320,7848,-10772,-528,234,-1271
1269812,-7504,7852,-10672,-539,181,-988
1269824,-7440,7752,-10804,-392,280,-572
1269836,-7604,8048,-10324,-404,525,-363
1269848,-7468,7896,-10644,-496,512,-561
1269860,-7348,7956,-10488,-629,671,-821
1269872,-7468,7988,-10328,-790,668,-1085
1269884,-7572,7740,-9968,-809,755,-1099
1269896,-7772,7940,-10116,-758,1000,-1119
1269908,-7556,7832,-10024,-508,1064,-886
1269920,-7644,7828,-10084,-294,1131,-426
1269938,-7644,7984,-10368,-73,1413,128
1269950,-7416,7960,-10692,205,1515,463
1269962,-7100,8072,-10976,439,1420,800
1269974,-6976,7860,-11068,628,1388,1051
1269986,-6664,7936,-11336,678,1343,1254
1269998,-6428,7776,-11444,653,1397,1309
1270010,-6084,7776,-11376,513,1552,1255
1270022,-5996,7844,-11300,290,1504,1030
1270034,-6036,8032,-11324,72,1497,603
1270046,-6028,7956,-11356,-262,1329,240
1270064,-6244,8024,-11392,-326,1003,-124
1270076,-6344,8148,-11128,-305,1143,-229
1270088,-6624,8128,-11264,-338,1127,-164
1270100,-6684,8052,-11196,-182,1070,38
1270112,-6832,8036,-11276,-20,1165,356
1270124,-6712,8008,-11452,230,1363,733
1270136,-6660,8052,-11528,427,1408,1122
1270148,-6256,8088,-11776,477,1391,1449
1270160,-6224,8228,-11920,456,1376,1537
1270172,-5820,8156,-11948,472,1323,1513
1270188,-5736,8216,-12352,422,1137,1478
1270200,-5388,8208,-11984,444,981,1403
1270212,-5376,8160,-12320,351,977,1307
1270224,-5172,8288,-12196,265,980,1044
1270236,-5160,8240,-12072,8,964,551
1270248,-4848,8100,-12012,-233,828,113
1270260,-4788,8096,-11736,-574,802,-306
1270272,-5200,8136,-11660,-807,709,-856
1270284,-5300,8004,-11664,-958,600,-1316
1270296,-5608,7936,-11596,-1033,561,-1482
1270314,-6004,8144,-11456,-1063,493,-1459
1270326,-6236,7980,-11228,-967,387,-1375
1270338,-6276,7964,-11260,-758,603,-1191
1270350,-6496,7928,-11288,-517,766,-861
1270362,-6316,7896,-11224,-222,779,-272
1270374,-6240,7864,-11456,13,970,242
1270386,-5940,7884,-11500,116,1017,523
1270398,-5840,7884,-11708,121,1078,609
1270410,-5600,7884,-11828,211,810,758
1270422,-5280,7664,-12044,333,667,1039
1270440,-5268,7788,-12152,271,577,955
1270452,-5024,7776,-12096,198,500,748
1270464,-4952,7720,-12300,141,432,695
1270476,-4988,7804,-12396,49,228,652
1270488,-5272,7932,-12524,-145,211,263
1270500,-5376,7892,-12424,-354,167,-122
1270512,-5548,7636,-12380,-462,143,-124
1270524,-5728,7640,-12408,-448,-213,49
1270536,-5768,7776,-12220,-532,-202,120
1270548,-5972,7756,-12192,-654,-119,73
1270566,-5812,7868,-12024,-964,96,0
1270578,-5788,7996,-11768,-1167,182,-181
1270590,-5840,8040,-11668,-1326,302,-446
1270602,-5724,8124,-11576,-1391,299,-483
1270614,-5684,8204,-11468,-1329,277,-352
1270626,-5676,8364,-11224,-1273,212,-256
1270638,-5732,8412,-11124,-1228,118,-421
1270650,-5808,8424,-11128,-1274,129,-525
1270662,-5884,8484,-11080,-1201,-9,-479
1270674,-6056,8396,-10836,-1044,77,-409
1270692,-6252,8480,-11064,-691,247,-180
1270704,-6088,8452,-11128,-261,195,213
1270716,-6144,8540,-11108,42,101,606
1270728,-6152,8488,-11240,159,143,605
1270740,-6040,8492,-11376,203,117,453
1270752,-5984,8228,-11380,244,-2,459
1270764,-5956,8260,-11464,249,-86,583
1270776,-5948,8156,-11384,321,111,600
1270788,-5912,8112,-11472,368,275,617
1270800,-5840,7992,-11800,417,171,761
1270816,-5664,7992,-11592,217,71,727
1270828,-5728,8052,-11664,-49,105,315
1270840,-5656,7828,-11572,-278,130,8
1270852,-5720,7812,-11728,-416,113,-72
1270864,-5980,7980,-11496,-483,-95,-210
1270876,-6080,8016,-11424,-511,-131,-320
1270888,-6368,8056,-11416,-478,-26,-225
1270900,-6336,7968,-11412,-306,-57,8
1270912,-6448,8056,-11332,-71,29,245
1270924,-6352,7888,-11412,60,104,493
1270942,-6108,7864,-11612,363,-12,1020
1270954,-5968,7764,-11708,312,73,1103
1270966,-5776,7912,-11652,184,151,1030
1270978,-5756,7940,-11776,106,130,953
1270990,-5652,7848,-11772,28,65,916
1271002,-5668,8036,-11664,-71,-106,777
1271014,-5680,7944,-11672,-165,-53,629
1271026,-5852,7908,-11892,-279,75,578
1271038,-5976,7872,-11652,-380,71,645
1271050,-5840,8104,-11436,-523,59,629
1271068,-5972,8292,-11148,-593,101,386
1271080,-6060,8400,-11320,-510,132,413
1271092,-6236,8324,-11316,-301,-34,509
1271104,-6252,8460,-11100,-261,21,496
1271116,-6156,8292,-11128,-188,-26,410
1271128,-6292,8116,-11424,-65,3,451
1271140,-6368,8232,-11164,-15,-93,660
1271152,-6460,8076,-11356,-67,116,733
1271164,-6344,8024,-11036,-162,205,717
1271176,-6268,8008,-11256,-127,273,741
1271194,-6264,8136,-11228,-39,162,881
1271206,-6104,8144,-11180,40,97,925
1271218,-6108,8184,-11140,-88,262,959
1271230,-6232,8212,-11348,-65,360,1028
1271242,-5980,8172,-11336,-8,376,1117
1271254,-6064,8232,-11640,-14,291,1257
1271266,-5840,8248,-11636,-101,336,1392
1271278,-5968,8448,-11768,-170,483,1441
1271290,-5592,8492,-11796,-178,538,1427
1271302,-5416,8536,-11948,-255,486,1327
1271318,-5156,8684,-11976,-275,626,1108
1271330,-5144,8664,-11768,-339,692,964
1271342,-5004,8700,-11796,-408,717,812
1271354,-5036,8688,-11808,-306,508,772
1271366,-4976,8592,-11716,-227,320,761
1271378,-4976,8656,-11412,-268,255,614
1271390,-5032,8600,-11428,-245,121,512
1271402,-5104,8584,-11432,-182,-64,422
1271414,-5168,8648,-11316,-317,-35,156
1271426,-5428,8756,-11328,-420,-81,-114
1271444,-5700,8692,-11180,-467,80,-314
1271456,-5864,8600,-11164,-449,4,-229
1271468,-5916,8656,-11156,-335,150,-135
1271480,-5980,8536,-10952,-154,270,-50
1271492,-6004,8532,-11132,-43,511,12
1271504,-5852,8484,-11248,65,471,164
1271516,-5724,8480,-11060,168,425,268
1271528,-5632,8580,-11124,208,378,267
1271540,-5560,8556,-11320,285,405,214
1271552,-5700,8444,-11488,312,375,218
1271570,-5696,8260,-11592,182,291,101
1271582,-5624,8196,-11508,-63,358,-65
1271594,-5760,8096,-11620,-169,538,-205
1271606,-5960,8096,-11644,-196,658,-265
1271618,-5936,8108,-11544,-279,669,-135
1271630,-6068,8136,-11508,-468,723,-106
1271642,-6088,8328,-11452,-501,753,-163
1271654,-5708,8288,-11408,-358,857,26
1271666,-5596,8356,-11456,-193,857,308
1271678,-5460,8432,-11568,-19,632,525
1271696,-5312,8500,-11752,41,711,560
1271708,-5228,8488,-11800,43,567,381
1271720,-5052,8388,-11952,73,448,359
1271732,-5004,8264,-12120,86,393,354
1271744,-5084,8396,-12020,121,319,409
1271756,-5008,8160,-12288,206,222,360
1271768,-4740,8136,-12236,71,222,313
1271780,-4780,8048,-11992,-34,76,102
1271792,-4768,8056,-11920,-288,40,-311
1271804,-5080,7992,-11768,-436,-105,-568
1271822,-5364,8100,-11760,-542,5,-657
1271834,-5452,8000,-11552,-570,5,-593
1271846,-5704,8008,-11604,-635,134,-636
1271858,-5776,8120,-11540,-627,87,-597
1271870,-5852,8116,-11448,-629,237,-459
1271882,-5896,8132,-11356,-506,361,-313
1271894,-5820,8088,-11416,-337,354,-24
1271906,-5692,8184,-11324,-208,338,202
1271918,-5692,8268,-11568,-134,434,201
1271930,-5636,8204,-11440,-225,423,124
1271946,-5572,8200,-11344,-219,332,87
1271958,-5612,8340,-11412,-199,279,27
1271970,-5740,8500,-11400,-72,300,53
1271982,-5664,8480,-11324,95,338,195
1271994,-5652,8372,-11556,258,400,327
1272006,-5588,8216,-11740,328,343,512
1272018,-5540,8136,-11808,262,376,534
1272030,-5508,8084,-11800,176,426,428
1272042,-5464,8088,-11880,1,485,269
1272054,-5584,8152,-11772,-136,520,175
1272072,-5440,8280,-11748,-187,450,80
1272084,-5220,8192,-11676,-96,375,160
1272096,-5060,8252,-11600,-70,363,150
1272108,-5172,8296,-11668,-86,319,-14
1272120,-5172,8272,-11396,-33,234,-132
1272132,-5408,8252,-11624,-13,220,-189
1272144,-5512,8232,-11628,27,244,-263
1272156,-5532,8032,-11592,49,228,-160
1272168,-5512,8004,-11620,216,194,-9
1272180,-5764,8224,-11604,137,199,-160
1272198,-5768,8044,-11460,73,355,-290
1272210,-5892,7916,-11624,110,384,-166
1272222,-5936,7840,-11652,88,413,-43
1272234,-5792,7856,-11664,90,426,57
1272246,-5644,7952,-11732,109,632,187
1272258,-5608,7840,-11744,172,632,294
1272270,-5480,7992,-11848,142,652,283
1272282,-5384,7880,-11948,15,575,143
1272294,-5296,7688,-11864,-101,416,97
1272306,-5356,7716,-11912,-282,387,5
1272324,-5568,7920,-11712,-448,619,-321
1272336,-5536,7800,-11840,-351,612,-213
1272348,-5676,7876,-11672,-200,613,23
1272360,-5576,7940,-11860,-87,721,160
1272372,-5616,7908,-11848,-30,712,261
1272384,-5324,7892,-11928,-44,707,301
1272396,-5272,7800,-12068,-30,524,449
1272408,-5200,7828,-11960,-140,583,464
1272420,-5248,7948,-11924,-267,632,329
1272432,-5072,8024,-12072,-442,616,21
1272448,-5024,7944,-12180,-411,451,87
1272460,-4956,8140,-11996,-373,426,213
1272472,-5048,8168,-11928,-298,378,148
1272484,-5036,8136,-12168,-275,372,47
1272496,-4964,8136,-12124,-250,380,115
1272508,-5028,8172,-12252,-280,377,160
1272520,-4996,8208,-12048,-333,331,-10
1272532,-5040,8192,-12056,-341,363,-162
1272544,-5104,8116,-12128,-288,280,-48
1272556,-5092,8092,-11800,-128,241,205
1272574,-5080,8272,-11884,63,243,335
1272586,-5100,8280,-11784,61,310,155
1272598,-4944,8096,-11900,70,246,66
1272610,-4936,7968,-11828,108,127,229
1272622,-5000,7992,-11960,224,-24,254
1272634,-5072,7988,-11952,116,4,175
1272646,-5100,7952,-12080,59,-27,66
1272658,-5136,7716,-12140,22,16,-22
1272670,-5236,7636,-12232,-35,-76,-30
1272682,-5172,7788,-12140,-143,-28,-40
1272700,-5356,7712,-12100,-261,192,-91
1272712,-5424,7796,-12064,-327,233,-153
1272724,-5400,7860,-11852,-359,201,-120
1272736,-5536,7860,-11744,-412,180,-135
1272748,-5564,7820,-11764,-407,143,-164
1272760,-5516,7796,-11712,-392,255,-82
1272772,-5652,7868,-11684,-134,145,223
1272784,-5404,7984,-11644,5,176,531
1272796,-5396,8160,-11628,-10,196,405
1272808,-5268,8008,-11520,-70,246,176
1272826,-5000,7996,-11576,-33,141,91
1272838,-5084,7972,-11652,-30,113,-15
1272850,-5064,7984,-11708,48,28,-72
1272862,-5160,7888,-11748,104,-49,-98
1272874,-5404,7696,-11840,4,83,-76
1272886,-5540,7720,-11784,-82,61,-84
1272898,-5828,7908,-11932,32,109,-160
1272910,-5916,7884,-11828,-65,179,-189
1272922,-5828,7720,-11808,-87,328,-40
1272934,-5836,7864,-12028,-52,467,193
1272950,-5588,7688,-12144,78,393,563
1272962,-5340,7876,-12064,35,462,595
1272974,-5180,7816,-12108,-124,462,333
1272986,-4932,7864,-12044,-283,611,105
1272998,-4800,7900,-12164,-324,381,64
1273010,-4716,8024,-12128,-238,306,35
1273022,-4748,8136,-12096,-137,266,-8
1273034,-4900,8192,-12408,-129,147,-193
1273046,-4916,7992,-12204,-155,-96,-345
1273058,-5028,7960,-12352,-223,-177,-351
1273076,-5204,7688,-12264,-305,-210,-233
1273088,-5320,7740,-12156,-347,-100,-286
1273100,-5256,7820,-12076,-462,54,-340
1273112,-5448,7912,-12272,-534,84,-440
1273124,-5332,7896,-12000,-499,-27,-599
1273136,-5284,7836,-11720,-612,40,-757
1273148,-5468,7908,-11724,-528,-37,-805
1273160,-5312,7636,-11768,-476,-86,-821
1273172,-5748,7876,-11544,-462,-98,-854
1273184,-5828,7684,-11684,-450,-82,-884
1273202,-6112,7728,-11476,-491,110,-730
1273214,-6100,7688,-11452,-463,135,-636
1273226,-6180,7680,-11620,-338,166,-355
1273238,-6048,7716,-11584,-171,235,-11
1273250,-5924,7704,-11644,-149,290,58
1273262,-5756,7884,-11828,-120,181,-2
1273274,-5668,7748,-11768,-89,144,-88
1273286,-5688,7800,-11796,-141,316,-139
1273298,-5620,7824,-11872,-196,379,-267
1273310,-5716,7668,-11916,-232,264,-332
1273328,-5788,7620,-11592,-284,255,-233
1273340,-5744,7704,-11800,-215,316,-272
1273352,-5820,7704,-11716,-210,366,-245
1273364,-5688,7776,-11824,-208,379,-225
1273376,-5604,7728,-11916,-186,543,-105
1273388,-5516,7800,-11864,-132,518,-121
1273400,-5432,7660,-11800,-76,448,-131
1273412,-5328,7788,-11848,-30,320,-135
1273424,-5540,7708,-11996,2,206,-230
1273436,-5412,7772,-11768,-2,238,-398
1273454,-5488,7468,-11920,-127,132,-604
1273466,-5700,7472,-12048,-203,218,-564
1273478,-5800,7336,-11892,-312,227,-598
1273490,-5868,7408,-11924,-434,305,-667
1273502,-5960,7464,-11784,-472,349,-735
1273514,-5984,7392,-11720,-509,391,-685
1273526,-6060,7416,-11652,-441,404,-524
1273538,-6164,7612,-11744,-271,460,-454
1273550,-5936,7468,-11576,-181,280,-291
1273562,-6056,7476,-11760,-101,396,-195
1273578,-6048,7436,-11948,2,398,-47
1273590,-5916,7428,-11972,-32,423,84
1273602,-5744,7448,-11880,-105,502,113
1273614,-5668,7428,-11908,-175,638,142
1273626,-5436,7464,-11928,-185,581,201
1273638,-5380,7560,-12064,-241,581,157
1273650,-5352,7748,-12016,-284,513,-54
1273662,-5184,7688,-11996,-321,502,-208
1273674,-5152,7656,-12008,-215,423,-253
1273686,-5344,7684,-12092,-113,269,-165
1273704,-5472,7628,-12192,-131,236,-234
1273716,-5680,7584,-12148,-163,219,-185
1273728,-5724,7480,-12168,-175,149,-101
1273740,-5612,7268,-11960,-253,179,10
1273752,-5720,7388,-12172,-303,250,41
1273764,-5692,7496,-12124,-316,349,-18
1273776,-5596,7548,-11944,-344,296,-110
1273788,-5472,7596,-11940,-367,282,-187
1273800,-5536,7520,-11840,-358,207,-186
1273812,-5692,7608,-11960,-360,143,-219
1273830,-5744,7296,-11692,-398,200,-261
1273842,-5936,7356,-11932,-345,150,-58
1273854,-5888,7424,-11884,-231,97,155
1273866,-5928,7416,-11644,-331,212,12
1273878,-5932,7456,-11812,-318,273,-115
1273890,-5788,7284,-11848,-234,260,-53
1273902,-5860,7380,-11932,-276,233,35
1273914,-5888,7416,-11944,-276,235,31
1273926,-5952,7460,-12016,-162,319,148
1273938,-5792,7324,-11984,-65,156,300
1273956,-5952,7236,-11876,-216,219,214
1273968,-5768,7348,-12048,-314,330,105
1273980,-5864,7448,-11944,-281,307,175
1273992,-5712,7388,-11756,-300,325,301
1274004,-5680,7472,-11828,-320,368,233
1274016,-5660,7548,-11964,-356,450,170
1274028,-5556,7472,-11920,-256,372,248
1274040,-5560,7492,-11972,-204,261,292
1274052,-5688,7568,-12116,-208,196,235
1274064,-5688,7452,-11984,-167,103,268
1274080,-5676,7524,-12204,-155,94,395
1274092,-5700,7428,-12044,-241,77,339
1274104,-5812,7488,-12000,-308,169,325
1274116,-5616,7464,-12072,-454,241,290
1274128,-5564,7600,-11928,-491,274,310
1274140,-5616,7580,-11964,-499,313,229
1274152,-5548,7664,-11884,-419,250,263
1274164,-5636,7700,-11916,-438,184,271
1274176,-5384,7744,-11684,-368,54,223
1274188,-5612,7860,-12020,-317,128,82
1274206,-5592,7752,-11916,-287,127,26
1274218,-5652,7708,-11932,-267,37,0
1274230,-5820,7576,-11936,-223,-4,123
1274242,-5872,7576,-11880,-187,37,229
1274254,-5816,7536,-11992,-240,109,290
1274266,-5840,7612,-11908,-296,100,272
1274278,-5808,7412,-11940,-298,17,251
1274290,-5832,7496,-12004,-358,108,273
1274302,-5736,7656,-11912,-357,184,239
1274314,-5700,7632,-12104,-318,232,226
1274332,-5600,7748,-11828,-361,230,133
1274344,-5596,7744,-11936,-350,153,-20
1274356,-5648,7860,-12108,-285,67,-6
1274368,-5824,7796,-12128,-119,-66,145
1274380,-5840,7764,-12136,-41,-225,192
1274392,-5920,7648,-12056,44,-222,276
1274404,-5992,7640,-12064,131,-217,404
1274416,-5920,7512,-12244,51,-52,534
1274428,-5820,7436,-12092,-41,-75,548
1274440,-5656,7540,-12160,-67,-99,717
1274458,-5472,7680,-12304,28,-110,854
1274470,-5168,7712,-12188,-6,-333,703
1274482,-5328,7748,-12184,-55,-457,424
1274494,-5232,7608,-12140,-126,-559,144
1274506,-5576,7480,-12228,-247,-589,45
1274518,-5828,7496,-12100,-314,-506,18
1274530,-5680,7316,-11984,-406,-367,-1
1274542,-5612,7456,-11780,-600,-165,-95
1274554,-5636,7584,-11868,-771,-121,-297
1274566,-5700,7652,-11820,-836,-267,-372
1274584,-5800,7684,-11948,-977,-143,-546
1274596,-5804,7712,-11680,-1067,-178,-760
1274608,-5900,7852,-11572,-1039,-146,-808
1274620,-5964,7728,-11596,-940,-103,-719
1274632,-6016,7668,-11632,-853,-152,-589
1274644,-6124,7720,-11456,-813,-241,-458
1274656,-6168,7708,-11260,-685,-315,-526
1274668,-6380,7664,-11132,-734,-240,-633
1274680,-6476,7524,-10976,-761,-206,-734
1274692,-6776,7512,-10780,-782,-155,-846
1274708,-6856,7472,-10408,-662,-11,-696
1274720,-7032,7440,-10120,-524,229,-559
1274732,-7180,7696,-10092,-383,279,-603
1274744,-7080,7720,-10040,-296,490,-602
1274756,-7288,7768,-10204,-245,655,-498
1274768,-7152,7760,-10236,-1,764,-257
1274780,-7444,7732,-10644,286,963,43
1274792,-7292,7468,-10996,596,1000,524
1274804,-7092,7420,-11392,802,1225,1123
1274816,-6744,7544,-12116,878,1404,1399
1274834,-6060,7364,-12804,723,1411,1597
1274846,-5432,7392,-13224,439,1490,1746
1274858,-5216,7468,-13448,320,1264,1715
1274870,-4708,7504,-13572,49,1191,1560
1274882,-4440,7532,-13504,-291,1191,1262
1274894,-4272,7680,-13496,-688,1180,911
1274906,-3996,7756,-13572,-825,788,654
1274918,-3868,7832,-13332,-1000,453,359
1274930,-3976,7904,-13196,-1106,231,-78
1274942,-4004,7844,-12880,-1261,106,-458
1274960,-4456,7936,-12344,-1288,-390,-720
1274972,-4616,8180,-11992,-1148,-606,-845
1274984,-5148,8016,-11936,-909,-668,-949
1274996,-5272,7884,-11416,-816,-702,-927
1275008,-5584,7860,-11464,-652,-790,-865
1275020,-5800,7748,-11368,-429,-936,-609
1275032,-6192,7568,-11368,-200,-935,-236
1275044,-6148,7484,-11288,26,-814,202
1275056,-6244,7508,-11384,111,-519,437
1275068,-5940,7560,-11644,47,-476,370
1275086,-5968,7512,-12112,-138,-451,127
1275098,-5852,7496,-12064,-368,-429,87
1275110,-5952,7480,-12036,-466,-544,10
1275122,-5984,7476,-12076,-636,-470,28
1275134,-5944,7564,-11992,-813,-487,-23
1275146,-6252,7756,-11896,-920,-469,-179
1275158,-6372,7836,-11676,-868,-382,-174
1275170,-6248,7976,-11568,-787,-305,-6
1275182,-6104,8024,-11288,-689,-199,292
1275194,-6304,8084,-11284,-466,-349,345
1275222,-6256,7984,-10796,-225,-217,319
1275234,-6252,8132,-10752,-95,-210,344
1275246,-6308,8220,-10924,60,-88,270
1275258,-6284,8176,-10832,160,-30,120
1275270,-6408,8072,-10864,203,-107,27
1275282,-6552,7788,-11072,235,-183,22
1275294,-6484,7664,-11144,226,-124,2
1275306,-6520,7656,-11084,136,129,-58
1275318,-6872,7680,-11608,186,80,31
1275330,-6492,7552,-11472,187,146,181
1275348,-6624,7712,-11568,53,158,44
1275360,-6744,7648,-11676,-153,359,-217
1275372,-6688,7448,-11716,-283,406,-301
1275384,-6732,7392,-11652,-325,445,-135
1275396,-6756,7488,-11600,-286,574,-79
1275408,-6740,7540,-11456,-329,600,-151
1275420,-6544,7416,-11536,-405,529,-237
1275432,-6292,7520,-11228,-329,474,-206
1275444,-6632,7424,-11328,-297,509,-93
1275456,-6496,7516,-11172,-291,465,-190
1275474,-6756,7564,-11144,-436,572,-469
1275486,-6720,7488,-11068,-560,717,-627
1275498,-6924,7400,-11252,-454,804,-557
1275510,-6884,7488,-11008,-292,778,-416
1275522,-6980,7552,-11164,-156,822,-325
1275534,-6832,7420,-11112,-214,874,-365
1275546,-6984,7328,-11344,-249,918,-400
1275558,-6928,7272,-11144,-346,927,-415
1275570,-6912,7196,-11152,-423,1018,-431
1275582,-6984,7180,-11368,-349,1190,-426
1275600,-6748,7140,-11744,-386,1209,-141
1275612,-6844,6988,-11748,-404,1160,31
1275624,-6608,7016,-11864,-563,1332,73
1275636,-6452,7040,-12024,-750,1411,75
1275648,-6172,7012,-11872,-963,1551,21
1275660,-6024,7188,-11692,-1196,1561,-240
1275672,-5928,7356,-11688,-1286,1658,-385
1275684,-5696,7444,-11384,-1204,1681,-350
1275696,-5508,7640,-11424,-1029,1450,-263
1275708,-5484,7792,-11404,-954,1365,-428
1275726,-5540,7824,-11300,-869,1245,-657
1275738,-5720,7768,-11536,-642,1157,-568
1275750,-5804,7804,-11468,-419,840,-276
1275762,-6044,7964,-11584,-208,987,-203
1275774,-6040,8016,-11760,-211,1155,-294
1275786,-6124,7796,-12288,-202,1018,-205
1275798,-6040,7804,-12144,-312,908,-64
1275810,-6176,7804,-12244,-543,1168,14
1275822,-6020,7776,-12284,-741,1384,169
1275834,-5888,7892,-12212,-1102,1586,211
1275852,-5636,8200,-12108,-1446,1681,131
1275864,-5484,8332,-11788,-1646,1846,165
1275876,-5096,8688,-11836,-1632,1870,176
1275888,-5036,8900,-11792,-1468,1681,233
1275900,-4948,9040,-11644,-1278,1517,230
1275912,-4928,9136,-11324,-1025,1328,127
1275924,-4968,9020,-11352,-741,1298,74
1275936,-5100,8800,-11392,-380,1074,276
1275948,-5196,8736,-11484,-28,846,459
1275960,-5336,8548,-11640,118,817,430
1275976,-5496,8168,-11796,205,924,549
1275988,-5556,8072,-12024,274,1011,704
1276000,-5528,8088,-12036,260,1025,643
1276012,-5424,8072,-12068,115,1229,448
1276024,-5188,7852,-12432,-15,1238,361
1276036,-4956,7932,-12320,-55,1170,459
1276048,-4664,7828,-12264,-81,1059,441
1276060,-4740,8016,-12160,-225,1119,201
1276072,-4656,8156,-12224,-318,1087,86
1276084,-4676,8300,-12392,-330,1006,-5
1276102,-4880,8128,-12432,-142,834,173
1276114,-4912,8044,-12464,-35,619,396
1276126,-4780,7868,-12420,138,512,565
1276138,-4836,7804,-12524,142,513,766
1276150,-4652,7880,-12532,227,501,868
1276162,-4448,7712,-12520,97,368,745
1276174,-4468,7716,-12608,1,321,589
1276186,-4340,7652,-12248,-225,330,295
1276198,-4268,7624,-12068,-470,295,70
1276210,-4544,7804,-12128,-539,217,-24
1276228,-4664,7904,-12032,-565,123,-260
1276240,-4788,7940,-11968,-627,37,-351
1276252,-5140,7908,-11772,-724,53,-632
1276264,-5456,7932,-11644,-902,102,-901
1276276,-5588,7996,-11868,-1008,254,-1042
1276288,-5784,8124,-11356,-1041,314,-936
1276300,-6032,8200,-11468,-938,483,-830
1276312,-6052,8204,-11368,-797,497,-586
1276324,-6172,8348,-11264,-591,607,-162
1276336,-6148,8384,-11148,-420,924,6
1276354,-5924,8352,-11500,-185,1042,94
1276366,-5560,8288,-11252,-137,1123,195
1276378,-5372,8328,-11468,-108,1063,229
1276390,-5164,8276,-11404,-34,1039,222
1276402,-5148,8388,-11492,51,1092,85
1276414,-5104,8392,-11632,34,1032,-143
1276426,-5092,8256,-11692,26,1047,-294
1276438,-5276,8112,-12080,-53,1087,-427
1276450,-5176,7952,-12052,-161,996,-470
1276462,-5364,7872,-12200,-344,1025,-497
1276481,-5052,7776,-12108,-401,1134,-536
1276493,-4832,7828,-12204,-569,1323,-599
1276505,-4788,8032,-12296,-686,1174,-834
1276517,-4660,8076,-12100,-755,1151,-1051
1276529,-4712,8052,-12320,-822,1118,-1183
1276541,-4692,7944,-12160,-742,1045,-1146
1276553,-4600,7984,-12124,-636,876,-990
1276565,-4760,7928,-11936,-647,777,-1048
1276577,-4892,7848,-12004,-697,884,-1201
1276589,-4992,7572,-12004,-812,828,-1174
1276605,-5140,7596,-12036,-834,955,-1167
1276617,-5256,7684,-11744,-989,1189,-1438
1276629,-5312,7596,-11564,-1232,1354,-1443
1276641,-5428,7700,-11292,-1213,1443,-1338
1276653,-5648,7812,-11236,-1203,1686,-1309
1276665,-5940,7828,-10776,-1084,1693,-1347
1276677,-5852,7792,-10604,-948,1908,-1316
1276689,-6444,7880,-10476,-777,1912,-1332
1276701,-6936,7868,-10196,-648,1968,-1388
1276713,-7424,7596,-10184,-560,2297,-1498
1276732,-7840,7372,-9520,-373,2872,-1427
1276744,-8124,7212,-9508,-316,3471,-1122
1276756,-8144,6932,-9992,175,3900,-339
1276768,-7808,6640,-10148,320,4329,492
1276780,-7648,6832,-11120,205,4691,1250
1276792,-6408,6884,-11668,334,4924,2356
1276804,-5012,7356,-12952,1202,4731,3524
1276816,-3444,8116,-13968,2057,4163,3342
1276828,-1908,8536,-15088,2437,3317,1794
1276840,-868,8304,-15792,1878,2248,231
1276859,744,7264,-16892,1181,2114,190
1276871,1416,7028,-17208,1139,1415,1705
1276883,1476,7176,-17104,761,881,2496
1276895,1256,7660,-16788,53,380,2006
1276907,980,7832,-15992,-1360,630,569
1276919,460,7880,-15580,-2950,678,-909
1276931,176,7996,-14880,-3849,487,-1788
1276943,-260,8016,-14280,-4055,495,-2005
1276955,-732,8392,-13588,-3917,498,-1853
1276967,-936,8504,-13176,-3730,309,-1579
1276986,-1524,8848,-12500,-3417,275,-1239
1276998,-1816,9160,-12216,-3128,154,-1071
1277010,-2180,9160,-12156,-2497,-104,-710
1277022,-2272,9032,-12072,-1707,-836,-237
1277034,-2532,8924,-12060,-992,-1355,211
1277046,-2724,8840,-11964,-591,-1706,374
1277058,-3140,8760,-11852,-337,-1782,191
1277070,-3276,8620,-11908,-107,-1800,-145
1277082,-3704,8312,-11936,104,-2048,-120
1277094,-3952,8012,-11904,228,-2257,89
1277113,-4408,8200,-11800,168,-2103,-5
1277125,-4672,8144,-11816,141,-1807,-112
1277137,-4592,7988,-11876,45,-1523,-16
1277149,-4564,7788,-11772,-75,-1367,56
1277161,-4584,7764,-11460,-256,-1291,60
1277173,-4768,7888,-11424,-360,-1120,14
1277185,-4808,7936,-11264,-356,-1060,14
1277197,-4956,8036,-11372,-355,-1102,31
1277209,-5004,8188,-11100,-278,-1148,-82
1277221,-5184,8132,-11180,16,-1263,-18
1277237,-5320,8044,-11308,442,-1213,285
1277249,-5368,7980,-11512,612,-1228,481
1277261,-5300,7912,-11644,595,-1171,509
1277273,-5420,7920,-11564,555,-1019,511
1277285,-5624,7828,-11376,492,-854,382
1277297,-5440,7808,-11640,428,-700,328
1277309,-5584,7800,-11552,343,-470,283
1277321,-5644,7716,-11548,295,-477,180
1277333,-5572,7860,-11736,142,-331,197
1277345,-5580,7856,-11820,103,-252,272
1277364,-5468,7876,-11744,140,-168,617
1277376,-5276,8096,-11616,197,-37,811
1277388,-5204,8172,-11736,230,156,744
1277400,-4900,8384,-11900,253,206,724
1277412,-4712,8380,-11872,310,111,652
1277424,-4892,8636,-11932,279,103,352
1277436,-4964,8356,-11880,238,-79,-174
1277448,-5192,8284,-11904,81,9,-453
1277460,-5492,8172,-11940,38,69,-562
1277472,-5864,8368,-11704,-120,227,-830
1277491,-6112,8188,-11668,-257,565,-1045
1277503,-6088,8228,-11520,-257,589,-830
1277515,-6220,8256,-11284,-227,782,-697
1277527,-6244,8304,-11080,-217,1149,-751
1277539,-6472,8380,-11032,-149,1360,-818
1277551,-6380,8172,-11128,-171,1480,-845
1277563,-6556,8216,-11308,-98,1584,-832
1277575,-6352,8148,-11132,-9,1703,-705
1277587,-6040,8152,-11160,-5,2112,-619
1277599,-5892,8152,-11100,-104,2312,-764
1277618,-5748,8108,-11360,-211,2376,-1053
1277630,-6040,8000,-11360,-353,2513,-1456
1277642,-6188,7872,-11328,-637,2625,-2058
1277654,-6568,7556,-11420,-819,2869,-2274
1277666,-6712,7264,-11744,-737,3191,-1961
1277678,-6472,7168,-11876,-704,3349,-1294
1277690,-6116,7040,-11692,-922,3472,-413
1277702,-5724,6932,-11936,-992,3624,452
1277714,-5096,7248,-12116,-867,3690,1175
1277726,-4368,7536,-12516,-520,3119,1538
1277745,-3180,7812,-12500,74,2161,1081
1277757,-2740,7760,-12400,-116,2180,411
1277769,-2268,7540,-12232,-508,2460,42
1277781,-1992,7432,-12152,-702,2573,118
1277793,-2072,7564,-12116,-614,2468,148
1277805,-2248,7640,-11964,-538,2315,-134
1277817,-2756,7680,-11900,-464,2240,-598
1277829,-3536,7280,-11884,-452,2033,-1138
1277841,-4628,7060,-11508,-725,2285,-1663
1277853,-5648,7120,-11284,-975,2869,-2278
1277869,-6368,6708,-10884,-923,3545,-1780
1277881,-6712,6504,-10424,-775,3959,-654
1277893,-7028,6660,-9840,-554,4156,383
1277905,-7212,6948,-9144,-300,4594,922
1277917,-7352,6876,-8352,-242,5271,1028
1277929,-7504,6848,-7616,-164,5880,1127
1277941,-7680,6684,-7156,335,6144,1606
1277953,-7416,6308,-6432,927,6222,2205
1277965,-7868,6144,-5808,1541,6804,2595
1277977,-7320,5716,-4840,1978,7350,3159
1277996,-6976,5100,-3792,3244,8234,4284
1278008,-6632,4568,-3360,3902,9085,4776
1278020,-6888,4248,-3984,4509,10083,4783
1278032,-6984,3652,-4124,4255,10835,4712
1278044,-6632,2788,-3832,3988,11834,4882
1278056,-6800,2212,-3576,3693,13233,5198
1278068,-6448,1540,-3164,3273,14119,5782
1278080,-5672,996,-2764,2908,15511,6760
1278092,-4708,608,-2468,2481,16921,7806
1278104,-4036,816,-2348,2286,17301,8708
1278123,-2848,1388,-1824,1544,18020,8842
1278135,-1120,892,-660,1219,19590,7852
1278147,-480,912,-920,858,18693,7071
1278159,1148,144,664,-132,19110,7511
1278171,2512,-696,780,-888,20187,8366
1278183,3428,-288,648,-800,23289,9113
1278195,4188,60,-112,-661,24173,10241
1278207,5656,-424,-64,107,22926,11683
1278219,8020,-1292,512,1432,19956,13556
1278231,8676,-1568,1640,1712,18975,14923
1278250,12148,-2488,2792,312,23424,14064
1278262,12000,-2244,1100,-1249,25603,13126
1278274,14080,-2864,1480,-2304,25073,13454
1278286,15724,-2852,1812,-2694,24580,14729
1278298,17080,-3052,2236,-2162,23194,16391
1278310,19288,-3808,3200,-1974,22892,17726
1278322,20036,-3704,2988,-2514,24347,17901
1278334,21552,-3800,2700,-3192,25841,17355
1278346,23176,-3916,3316,-4104,27092,16218
1278358,25216,-4504,4300,-5755,27153,15044
1278377,27780,-5472,5728,-7727,24376,15728
1278389,29200,-6024,6440,-7213,23138,17998
1278401,30444,-6912,6764,-4913,23648,20930
1278413,31124,-7892,6928,-3083,24803,23133
1278425,32767,-8552,7300,-2625,24877,22125
1278437,32767,-9492,8332,-2653,25412,21159
1278449,32292,-10620,3656,-366,24676,22197
1278461,32704,-10688,7468,583,22752,22801
1278473,31492,-11116,10040,4181,20307,25193
1278485,32767,-15708,6384,10433,22734,26724
1278504,32767,-19976,968,14255,28123,29461
1278516,32767,-18000,8008,12632,29842,27932
1278528,32767,-19568,11600,4541,31627,23842
1278540,32767,-19000,11216,-3488,32767,17945
1278552,32767,-17916,11008,-9814,32767,14517
1278564,32767,-16644,11696,-12683,32767,12600
1278576,32767,-14728,13024,-14536,32767,12203
1278588,32767,-13652,13152,-13724,32767,13048
1278600,32188,-13212,13064,-10478,32767,16366
1278612,32400,-13324,12536,-5477,32261,19819
1278628,32108,-12980,11932,762,29550,21511
1278640,32096,-12544,11764,2636,30685,21951
1278651,32096,-12544,11764,2636,30685,21951
1278661,32096,-12544,11764,2636,30685,21951
1278671,32096,-12544,11764,2636,30685,21951
1278681,32096,-12544,11764,2636,30685,21951
1278691,32096,-12544,11764,2636,30685,21951
1278702,29788,-15500,8992,3344,32767,16415
1278714,29476,-11280,14916,8692,31186,9132
1278726,26948,-11676,15200,7970,29686,7485
1278744,24764,-10976,16176,5236,30293,1496
1278756,28296,-11132,15232,4626,30687,-3327
1278768,27064,-10652,13492,5116,24566,-8175
1278780,26984,-10808,14300,2704,21444,-13256
1278792,26432,-10992,14848,-1624,18493,-16373
1278804,26572,-12012,14824,-5752,15690,-17908
1278816,25848,-14072,15348,-8103,13491,-18625
1278828,25968,-12404,16368,-7887,15861,-19070
1278840,24996,-11128,21620,-9109,11623,-19387
1278852,27432,-9944,18648,-9523,5004,-20659
1278870,23516,-9296,17312,-9089,-3604,-29079
1278882,21276,-9212,18300,-12170,-3712,-32768
1278894,20048,-11460,20232,-14816,-6149,-32768
1278906,19700,-11448,22056,-13514,-6275,-32768
1278918,18920,-9588,21732,-10895,-8345,-28836
1278930,19536,-7264,20484,-10551,-11674,-19837
1278942,20300,-3704,19980,-5691,-21743,-14408
1278954,20456,-2716,20136,-7198,-27935,-12553
1278966,19488,-980,20700,-9460,-30231,-15514
1278978,18888,-1008,20868,-10328,-30827,-19201
1278996,17652,-1268,20428,-7838,-30041,-20679
1279008,16900,-792,18988,-5763,-29985,-18612
1279020,16856,-592,17556,-4576,-31329,-15234
1279032,17648,-1040,16764,-4178,-32768,-9542
1279044,18416,1048,15708,-3815,-32768,-2860
1279056,18664,2364,15200,-3970,-32768,-515
1279068,18628,3988,14680,-4349,-32768,513
1279080,18636,4348,13552,-4719,-32768,-1449
1279092,18464,4144,12684,-3887,-32768,-4116
1279104,16844,4660,12384,-2237,-32768,-6597
1279122,12540,5060,11032,576,-32768,-10130
1279134,10812,3836,10412,2175,-32768,-10436
1279146,10832,2912,8860,3381,-31954,-8186
1279158,11916,1836,6596,4718,-31003,-3890
1279170,12644,2120,4264,5316,-32768,-262
1279182,12272,2460,2872,4820,-32768,256
1279194,11120,2516,2236,3322,-32768,-2371
1279206,8944,2332,2528,2148,-32768,-7167
1279218,7580,356,3416,2039,-32768,-11524
1279230,7524,-1124,4216,3242,-32768,-12540
1279248,6424,-3432,5168,3861,-32177,-11527
1279260,5752,-4196,3200,2223,-28152,-12968
1279272,6032,-3556,976,2561,-27699,-13663
1279284,4348,-4344,-252,1237,-29207,-18403
1279296,4176,-5008,868,-333,-29187,-24027
1279308,4060,-4492,2520,-1610,-26669,-27168
1279320,2976,-5572,3216,-829,-26637,-26332
1279332,1556,-5408,1764,1612,-24929,-24926
1279344,528,-6716,-116,3491,-21852,-26261
1279356,-1332,-7024,-2240,3293,-16363,-31738
1279374,264,-7488,-6136,-1601,-9553,-32768
1279386,1424,-6364,-7360,-4050,-8513,-32768
1279398,1208,-5472,-7188,-5100,-12534,-30678
1279410,72,-3804,-6696,-4214,-16214,-23096
1279422,-444,-2724,-7040,-2058,-16303,-17740
1279434,-2292,-2620,-8452,-318,-11095,-18142
1279446,-3092,-2116,-10716,-334,-4398,-20779
1279458,-192,-3860,-12052,-4585,9,-20782
1279470,2172,-3864,-13252,-8248,-3274,-16915
1279482,3488,-3564,-13984,-9779,-9392,-10922
1279500,3300,-440,-13752,-11793,-19761,-6700
1279512,3428,1508,-11080,-14885,-25722,-6703
1279524,3396,2736,-7972,-17313,-24734,-10216
1279536,3224,3232,-7160,-17569,-19220,-14737
1279548,4052,4044,-5940,-15329,-9509,-18181
1279560,3932,3752,-7488,-12205,-1928,-18711
1279572,3540,3004,-9756,-7235,2798,-14678
1279584,1604,2216,-11764,-512,3906,-8491
1279596,580,2384,-11872,4105,4809,-3834
1279608,-364,1908,-11916,6308,6335,-2666
1279624,-1980,1128,-12260,5714,9428,-5826
1279636,-4052,920,-12736,3828,8690,-8917
1279648,-5012,724,-11932,1274,6559,-9916
1279660,-6168,544,-10524,-849,4510,-9177
1279672,-8276,1312,-8476,-1525,2744,-7664
1279684,-9848,1908,-6800,-1644,2280,-6255
1279696,-9608,3000,-4336,-1570,7711,-4667
1279708,-9132,3496,-3924,-588,14350,-1784
1279720,-7032,3912,-4144,819,17997,1673
1279732,-3344,4276,-4568,2516,19657,4847
1279750,516,4848,-5928,4446,18094,7011
1279762,2660,5156,-5588,4133,16272,6136
1279774,4608,4836,-4884,3513,14599,4933
1279786,5280,4548,-4632,3404,13785,3865
1279798,4732,4128,-5032,3527,12067,3422
1279810,3960,3532,-4032,3657,8998,3861
1279822,1636,3232,-3196,5307,7466,3957
1279834,-64,2952,-2176,7076,8696,2995
1279846,-1552,1980,-1172,7763,12775,2527
1279858,-1040,-20,-200,8223,15399,4508
1279876,572,-1540,1308,9545,17609,10026
1279888,1616,-1712,1860,10517,19950,12471
1279900,1792,-1316,2148,10705,22057,12664
1279912,2984,-1312,4112,8702,22978,11324
1279924,4108,-2060,3476,8365,23453,10439
1279936,3960,-2608,4900,8449,22911,10825
1279948,5132,-3476,6248,7662,24171,11580
1279960,6712,-4748,6744,8996,26158,12851
1279972,9512,-5836,6716,11188,27435,14827
1279984,10484,-6648,7508,11264,30379,13201
1280002,13788,-7892,7476,9527,31487,12242
1280014,14504,-6868,9432,7330,31018,9799
1280026,16948,-7876,11340,4999,27082,8497
1280038,17160,-7976,12628,3989,26393,7407
1280050,18468,-9328,12888,4404,28240,7688
1280062,20576,-11812,12996,5955,29991,10359
1280074,21660,-12448,14772,5947,29421,13381
1280086,23908,-11940,15316,5201,27861,11807
1280098,24672,-12364,17108,3862,26637,9023
1280110,26304,-13624,16812,1606,27210,6353
1280128,25460,-14564,15500,398,27208,6758
1280140,25776,-16484,14460,2002,26255,10108
1280152,26492,-17828,15636,4064,25775,15240
1280164,27540,-17944,17444,5470,23813,18938
1280176,27476,-17112,19256,5767,22584,18320
1280188,26768,-16468,21804,3977,23214,14963
1280200,27008,-15932,22316,1481,22636,11741
1280212,25676,-17128,20272,1263,23281,11192
1280224,26352,-17964,20004,2298,22584,13810
1280236,25996,-18136,20040,3814,22046,17516
1280254,26180,-19348,21532,7190,22379,17464
1280266,27136,-17340,25156,6010,22091,14834
1280278,27784,-19000,24992,4511,24769,11842
1280290,26868,-17808,23720,3216,25510,9518
1280302,25396,-17824,22076,2015,26522,8163
1280314,25820,-18724,21016,1539,26943,8479
1280326,24720,-18648,20224,1603,27257,9187
1280338,23888,-17852,19540,2105,27625,9143
1280350,23456,-17700,19104,2180,29250,8042
1280362,22788,-17564,18384,1656,31138,7332
1280378,23284,-17872,17108,763,32519,7160
1280390,23280,-17552,16992,-91,32767,7337
1280402,23472,-16936,17176,-258,32767,7381
1280414,23508,-16072,17284,196,32767,7180
1280426,23196,-14936,17960,1176,32767,5892
1280438,22916,-13428,17668,3444,32767,4579
1280450,21080,-12992,19024,4471,32767,-717
1280462,22812,-12084,17776,5685,32767,-5697
1280474,24056,-12896,17160,7459,32767,-10390
1280486,24792,-11756,12984,8850,32767,-9660
1280505,20520,-12924,15680,7910,23447,-14330
1280517,20024,-13424,17640,5033,20841,-15435
1280529,17992,-13956,18072,170,18543,-17854
1280541,16372,-13416,18424,-4507,15282,-20851
1280553,15844,-13508,19540,-7939,13168,-23547
1280565,14560,-12636,20312,-9236,14937,-26800
1280577,14884,-11920,21976,-11275,11461,-29165
1280589,14808,-11416,22708,-12112,10476,-30984
1280601,15732,-11324,23740,-11121,8939,-31889
1280613,14328,-11120,23336,-9354,7533,-31491
1280632,13812,-11256,23524,-8794,1744,-30244
1280644,12504,-11120,22492,-9398,-1334,-29251
1280656,12488,-10892,22188,-9773,-4219,-28123
1280668,11904,-10592,21648,-9596,-6385,-27137
1280680,13420,-9960,22096,-8680,-7695,-26661
1280692,15644,-8288,22248,-7832,-5107,-26676
1280704,16188,-8204,20452,-7013,-9204,-26373
1280716,16168,-7420,19272,-6676,-13843,-26037
1280728,17244,-7436,19860,-6490,-17601,-25662
1280740,16896,-7212,19864,-6867,-19519,-25760
1280767,15264,-5688,19288,-6393,-22738,-24707
1280779,14232,-4260,18528,-5494,-24628,-22666
1280791,14528,-4600,17784,-4197,-25403,-20737
1280803,15060,-3056,15696,-2473,-27345,-17751
1280815,14744,-3012,14800,-1910,-30603,-15308
1280827,16864,-4216,14856,-2361,-31487,-12700
1280839,15612,-4780,15536,-3855,-32768,-9603
1280851,16936,-4432,12888,-4711,-32768,-7587
1280863,18500,-3828,12276,-5482,-32768,-6410
1280875,17088,-1532,9888,-5402,-32768,-2784
1280893,12876,-288,9588,-5869,-32768,-5879
1280905,11744,-1644,9908,-5109,-32768,-8615
1280917,14276,-3280,11248,-3197,-32768,-5957
1280929,14396,-2940,10304,-1728,-32768,-2572
1280941,14096,-2092,8684,-2189,-32768,-2194
1280953,14696,-988,6884,-2456,-32768,-1522
1280965,13940,1072,1804,-1348,-32768,-2777
1280977,12680,276,-1020,-1804,-32768,-13338
1280989,11784,-188,1808,-2553,-32768,-19019
1281001,10560,-3436,4116,-2673,-32768,-17054
1281019,12016,-4816,3828,-426,-32768,-6301
1281031,10260,-3112,3868,520,-32768,-982
1281043,8392,-932,2976,-1144,-32768,-3583
1281055,7036,592,908,-3522,-29046,-11723
1281067,7968,1096,-1476,-4100,-24560,-19373
1281079,7608,132,-2284,-2837,-23709,-23628
1281091,7664,-1120,-2656,-1036,-24918,-24619
1281103,7308,-1664,-2004,246,-25686,-22296
1281115,7436,-2248,-2220,616,-25551,-18482
1281127,7220,-2132,-2576,-664,-23985,-17102
1281145,5692,-2124,-4008,-2559,-19385,-21329
1281157,5604,-1504,-4896,-4608,-17156,-26795
1281169,6340,-2008,-6412,-6334,-16899,-30611
1281181,5604,-1648,-6388,-5815,-19529,-31762
1281193,4572,-804,-5364,-5852,-22527,-31513
1281205,3504,-536,-5764,-6406,-24260,-30523
1281217,200,-520,-7680,-5803,-24318,-30846
1281229,-1816,1012,-7844,-7135,-19967,-32768
1281241,-3760,2916,-9148,-7770,-16337,-32768
1281253,-4876,2444,-8984,-8567,-15331,-32768
1281271,-4560,1408,-7948,-12908,-17185,-32768
1281283,-4896,928,-6024,-14483,-21105,-32768
1281295,-6492,2320,-3720,-14111,-21783,-32768
1281307,-7276,4976,-1096,-10017,-18053,-24425
1281319,-5708,6468,-1152,-5856,-11465,-12028
1281331,-4816,7728,-2620,33,-5153,-2867
1281343,-2216,7960,-4236,5386,313,1382
1281355,456,7024,-5312,9459,6147,1982
1281367,2988,4960,-7792,11722,9339,-660
1281379,4596,2248,-10212,12269,9175,-2144
1281397,6564,-516,-13292,10823,6906,-1698
1281409,6104,-224,-14504,8715,4704,-1628
1281421,4220,752,-14768,6657,1944,-3585
1281433,2964,1356,-14348,5124,1053,-7521
1281445,1336,1568,-13812,4235,1369,-11580
1281457,-588,1280,-13384,3370,2694,-15271
1281469,-2208,724,-13480,2616,3762,-16796
1281481,-2792,444,-13416,2123,4506,-14962
1281493,-3456,700,-12768,2080,5014,-11513
1281505,-3848,2068,-11768,1506,5445,-8100
1281521,-3204,3852,-10800,1397,5806,-4946
1281533,-2476,4844,-9792,1752,6123,-4243
1281545,-1956,4808,-9764,2484,7631,-4616
1281557,-3140,4888,-10472,3171,8384,-6302
1281569,-3700,4220,-10788,2453,8889,-8848
1281581,-3512,3388,-10428,692,9855,-10473
1281593,-3580,2936,-10252,-932,9882,-9776
1281605,-3508,3184,-9428,-1594,9559,-8086
1281617,-3248,3708,-8152,-2059,9902,-5936
1281629,-2648,4492,-7056,-1885,10644,-3607
1281647,-1448,5320,-6248,-206,12735,-1056
1281659,-1188,5316,-6396,1310,14362,-167
1281671,-688,5112,-6988,2512,15973,526
1281683,-744,4424,-7620,2601,17115,465
1281695,612,3716,-7544,1982,16726,1433
1281707,1004,3420,-7376,1150,15418,2452
1281719,1440,3088,-6072,699,13845,3028
1281731,1744,3064,-4556,13,13544,2826
1281743,1832,2808,-4328,-364,14013,2498
1281755,2324,2428,-3500,-370,14609,2407
1281773,5308,760,-2232,1115,16246,4735
1281785,6492,304,-1752,1669,17258,6628
1281797,7360,1292,-1036,818,16428,7464
1281809,8320,344,28,-288,15959,7147
1281821,10200,588,-40,-1136,17505,5308
1281833,10500,928,172,-2455,14847,5405
1281845,9044,-100,-1716,1266,18226,5262
1281857,11636,-1312,24,1700,16207,7398
1281869,11648,-2160,1312,2083,16044,8798
1281881,11976,-2296,2796,1642,15703,8708
1281899,12288,-2728,3368,48,15980,6924
1281911,13380,-2372,3488,597,17217,8343
1281923,13256,-3648,3276,2303,15629,9496
1281935,14100,-4228,4332,3409,16033,9361
1281947,14884,-5564,4916,4139,16288,11602
1281959,15436,-8932,4832,4633,18046,13186
1281971,17284,-9476,5120,5379,20098,14480
1281983,19128,-9032,6272,6340,21569,15513
1281995,20420,-8096,7808,5644,20754,13676
1282007,21084,-7924,9172,4848,20548,13268
1282025,21300,-11040,5660,8752,22520,14951
1282037,23008,-12120,3468,13201,24950,18155
1282049,22272,-12712,4748,13682,26723,20784
1282061,22476,-14864,7796,9884,26807,17637
1282073,24620,-13040,11256,5856,25423,12992
1282085,27076,-12372,12864,1054,20303,9681
1282097,25636,-12600,12224,-2843,20769,9971
1282109,23880,-13136,10956,-1389,21740,10548
1282121,26868,-14104,9848,5713,22127,15825
1282133,27536,-16044,8752,14553,24950,21135
1282149,27736,-16692,10772,16542,30040,20679
1282161,26880,-15652,14304,5987,30916,13438
1282173,28072,-15928,15424,-5227,30092,4279
1282185,27172,-13664,16132,-15203,30990,-2176
1282197,24788,-13360,15648,-21408,28961,-2491
1282209,24428,-16056,12832,-18106,26123,3066
1282221,27136,-17244,11988,-6496,23479,13401
1282233,26480,-15492,16488,2309,23751,18939
1282245,26780,-14832,19012,2497,24800,17453
1282257,29880,-16372,19520,-1440,27497,12092
1282275,30256,-15128,17788,-10491,28730,9304
1282287,27652,-14440,17636,-13977,30255,6525
1282299,28256,-15096,17956,-15094,31525,4933
1282311,27480,-15148,17956,-14980,32141,6128
1282323,25640,-15380,17796,-14223,32767,6710
1282335,25652,-15396,17208,-13538,32767,7865
1282347,25040,-15040,16484,-12258,32767,9050
1282359,25276,-13892,15928,-9863,32767,8991
1282371,25340,-13324,16140,-7346,32767,7909
1282383,25976,-12932,16192,-5329,32767,6368
1282401,26588,-12668,15432,-2715,32767,3290
1282413,26328,-12540,14568,-2572,32767,2178
1282425,25820,-12048,14292,-5084,32767,532
1282437,24492,-11712,12744,-9345,30398,-820
1282449,23784,-11948,11364,-11160,24891,-2760
1282461,24124,-11540,11852,-12627,21189,-3744
1282473,21188,-11156,13004,-14112,19705,-5406
1282485,20648,-10624,13940,-14849,19127,-8680
1282497,20580,-10652,13836,-14466,22329,-13012
1282509,18864,-11148,15288,-15023,25259,-19793
1282527,24092,-11860,12588,-17743,15234,-27169
1282539,22436,-13852,11756,-18722,11426,-30207
1282551,21644,-14840,13948,-23781,8005,-32102
1282563,21008,-15616,13120,-28137,3563,-31444
1282575,20212,-15284,13604,-26592,2105,-30902
1282587,22444,-11532,16424,-18124,1931,-28698
1282599,24444,-7280,21300,-9759,1288,-24500
1282611,24832,-2928,24776,-5525,-242,-22423
1282623,26388,-2892,24964,-3447,52,-22485
1282635,27128,-2304,24844,-1506,2434,-25036
1282653,28204,-3984,21252,-2673,-6265,-23800
1282665,26648,-4392,18340,-832,-15178,-22507
1282677,22688,-4792,18116,-471,-21150,-21182
1282689,20592,-3816,19448,-1129,-23281,-22841
1282701,22268,-1752,19748,-1206,-23682,-23042
1282713,21356,-924,18092,514,-25168,-22232
1282725,20604,396,17104,3304,-28267,-21272
1282737,20952,-48,15804,5070,-32768,-18911
1282749,20100,-1736,15900,5269,-32768,-18478
1282761,19472,-2168,15124,5036,-32768,-17847
1282779,18608,-1720,12364,6407,-32768,-17045
1282791,18320,-1688,12288,7443,-32768,-17045
1282803,18272,-1492,11084,8077,-32768,-16225
1282815,20140,-1372,10704,7700,-32768,-14701
1282827,22776,-736,8140,8593,-32768,-9399
1282839,17860,-588,10104,9036,-32768,-8309
1282851,17408,48,9380,8273,-32768,-9454
1282863,15096,-72,8776,8709,-32768,-11089
1282875,14644,-424,8632,9898,-32768,-12126
1282887,12648,-784,7628,10558,-32768,-11075
1282905,11952,-1980,4764,10083,-32768,-9563
1282917,10484,-724,3716,9062,-32768,-7917
1282929,9044,-816,2308,7343,-32768,-9116
1282941,8476,-528,2072,5421,-32768,-11867
1282953,6600,-1128,2252,4343,-32768,-15285
1282965,6160,-2856,1336,4647,-32768,-18579
1282977,5960,-3916,2160,5646,-32768,-19518
1282989,3440,-4680,2612,5693,-31233,-18737
1283001,1884,-6308,244,7234,-27159,-19092
1283013,2296,-7404,-2360,6777,-26565,-15852
1283031,520,-6628,-4800,2226,-24361,-11363
1283043,1316,-6092,-5988,-1278,-26450,-7834
1283055,1700,-4972,-6868,-3700,-28827,-5409
1283067,716,-4100,-8800,-4196,-29594,-6225
1283079,-4,-4536,-9860,-4515,-26422,-11375
1283091,-1272,-4948,-9456,-8057,-22707,-18979
1283103,-392,-6212,-9456,-13647,-19935,-25464
1283115,1340,-6952,-10132,-18763,-19704,-23549
1283127,-184,-8852,-13868,-18521,-21461,-21603
1283139,-1164,-6184,-8788,-23232,-25230,-19784
1283157,-1784,-4232,-5352,-32768,-27727,-21133
1283169,-2560,-3232,-3012,-32768,-26290,-25778
1283181,-2576,-748,272,-32768,-23146,-29488
1283193,-3876,2396,2128,-32768,-17089,-32768
1283205,-5980,7408,4524,-32768,-11038,-32768
1283217,-6664,10388,5824,-32768,-3652,-32087
1283229,-5208,12432,4596,-28028,4596,-27202
1283241,-4484,12036,880,-15790,12344,-20184
1283253,-1948,9840,-3192,-2731,13280,-9569
1283265,1508,7452,-6552,9315,11337,1962
1283281,3876,4400,-11608,21904,7660,15232
1283293,4948,3952,-12772,24345,6291,17724
1283305,5292,3144,-15068,22465,7477,14143
1283317,4744,1840,-16212,18821,6286,8529
1283329,3688,880,-16932,13731,3913,2712
1283341,2624,804,-16156,8193,3115,-3313
1283353,1228,320,-15368,4344,3155,-9272
1283365,172,-76,-15640,1924,4325,-12669
1283377,-840,268,-16316,1496,4752,-12507
1283389,-1524,568,-15864,2152,5542,-10323
1283407,-1784,2092,-14712,3252,6978,-6553
1283419,-2296,3484,-14472,3113,8483,-6322
1283431,-1868,3868,-14616,1937,8872,-6930
1283443,-1432,4212,-14772,950,7907,-7323
1283455,-1708,4728,-15156,509,6157,-7074
1283467,-1408,5184,-15004,733,4220,-6098
1283479,-784,5296,-13836,980,3480,-4941
1283491,-500,5512,-13168,980,3806,-3829
1283503,-284,5928,-11876,975,3458,-3249
1283515,80,6268,-11044,876,3582,-3641
1283533,40,6304,-10532,1459,4722,-5100
1283545,-848,6356,-11224,1783,5568,-5976
1283557,-1176,6320,-11468,1964,5255,-5867
1283569,-1380,5736,-10976,1720,4563,-5943
1283581,-1020,5324,-9836,941,4750,-6185
1283593,-1528,5552,-10184,698,5476,-6383
1283605,-1144,5692,-10304,1144,6567,-5916
1283617,-1060,5900,-11092,2102,7363,-4926
1283629,-528,6056,-11568,3374,7338,-3988
1283641,-532,5688,-11896,4092,7723,-3726
1283659,-572,4720,-11660,3871,7372,-3409
1283671,-684,3876,-11372,3249,6931,-2619
1283683,-1748,3736,-11104,3110,6866,-2060
1283695,-1508,3292,-9964,2801,7795,-1715
1283707,-1180,3040,-9312,2984,9167,-967
1283719,-1044,3148,-8600,3333,10308,16
1283731,-1024,3472,-7700,3096,10819,632
1283743,268,3396,-6564,3512,11256,888
1283755,1116,3812,-6000,4413,12481,162
1283767,1092,3968,-5012,4770,12659,-702
1283785,2736,2520,-4968,5082,13984,-2149
1283797,2676,2140,-5476,6338,14691,-1410
1283809,2056,2252,-5364,7679,14326,378
1283821,1964,2324,-5532,8989,15276,1810
1283833,1552,1896,-5328,9843,15984,2701
1283845,1372,1532,-5156,9510,16631,2907
1283857,628,952,-5412,9055,17561,2544
1283869,1636,-544,-4520,8611,18352,2914
1283881,2300,-1460,-4412,8436,18723,4286
1283893,3244,-2624,-3964,8378,18015,6554
1283911,5420,-3192,-2368,6994,17621,8275
1283923,5876,-2400,-1464,6055,19044,8468
1283935,6768,-2668,-1044,5959,20879,8286
1283947,8888,-3272,-688,6946,21173,8497
1283959,9908,-3748,720,7039,21164,7733
1283971,11448,-4560,2316,5914,21196,7357
1283983,12956,-5396,3360,4202,21998,6380
1283995,13324,-5688,4844,2671,21448,5976
1284007,14032,-5824,5832,1066,21695,5320
1284019,13868,-5020,6048,566,22419,4409
1284035,13580,-5888,6324,1254,22588,5579
1284047,14908,-8056,7660,2767,22183,8991
1284059,16632,-9600,8408,5826,20812,12624
1284071,17940,-9936,8772,7660,21700,13213
1284083,18652,-10312,8480,7755,25587,10033
1284095,18468,-10540,7444,3884,26524,6848
1284107,16992,-10852,8336,-819,24678,4598
1284119,18964,-12436,11088,-5364,22613,5177
1284131,19144,-14104,11312,-5932,20339,9033
1284143,21484,-16552,10508,1020,17817,14068
1284161,24204,-17884,10748,11280,19892,22809
1284173,26956,-17168,12872,13583,23425,22381
1284185,28640,-16832,11236,9148,24359,19046
1284197,26404,-17744,11224,1826,26061,14470
1284209,27080,-17604,10692,-3795,26170,11407
1284221,27284,-17924,11124,-3857,25270,12597
1284233,28124,-18924,11156,1377,25033,15786
1284245,30548,-19580,12236,7454,25005,18150
1284257,31164,-19920,13296,8428,27423,17304
1284269,30532,-20224,14716,3360,31526,11212
1284287,30304,-19724,14612,-11921,32767,631
1284299,28236,-19372,15376,-18272,32767,-2409
1284311,30164,-18044,16912,-21421,32767,-2563
1284323,30264,-17072,16944,-21193,32767,1424
1284335,29436,-17028,15072,-16422,32767,6373
1284347,27312,-16016,15188,-11677,32767,10236
1284359,27736,-15232,15600,-8555,32767,11766
1284371,28236,-14676,14900,-6696,32222,11795
1284383,27936,-14312,13880,-5249,31734,10060
1284395,27944,-14964,11880,-3868,31892,9082
1284413,28880,-15340,10872,-2011,31567,9906
1284425,28972,-15148,10584,-139,32043,9493
1284437,29124,-15004,11508,1775,32767,8858
1284449,31276,-13980,12672,3550,32767,7240
1284461,32767,-13400,13116,6510,32767,4428
1284473,30508,-13476,11768,6475,32767,1556
1284485,28220,-13432,11928,3999,32767,-3897
1284497,30488,-13668,14196,-230,30980,-6693
1284509,29812,-12008,12232,-5155,22669,-6937
1284521,26344,-11176,12688,-7701,16218,-11387
1284539,24736,-10156,16604,-14639,11689,-18587
1284551,23964,-9300,17444,-16776,11291,-24494
1284563,24072,-8892,19896,-15209,12148,-28519
1284575,25564,-7780,19816,-13449,8357,-29284
1284587,23336,-6932,16704,-11209,1443,-27341
1284599,22276,-7792,16360,-10211,255,-28895
1284611,23184,-8488,17216,-11503,-2199,-27398
1284623,22452,-8872,15128,-11509,-4927,-23872
1284635,21380,-7540,15792,-10357,-6714,-20888
1284647,21380,-6228,16964,-8391,-7509,-20857
1284665,19652,-3752,17932,-6980,-8885,-19876
1284677,19444,-2976,17728,-4909,-11538,-18636
1284689,20332,-2848,17596,-1511,-14879,-15203
1284701,19460,-2572,18956,135,-17148,-12567
1284713,18932,-2464,18548,1094,-17688,-11162
1284725,19216,-2908,18076,725,-18891,-10369
1284737,19456,-3128,17816,826,-20892,-8398
1284749,17804,-2316,18180,975,-22867,-7194
1284761,17204,-1652,17120,1336,-24873,-6804
1284773,14680,-604,16156,1678,-26775,-7616
1284800,12896,-2648,15280,3336,-28032,-7501
1284812,13344,-4440,14448,4370,-27721,-4075
1284824,14264,-4980,12920,4900,-25664,-2033
1284836,14304,-4508,11348,3481,-26473,958
1284848,14120,-4012,8160,1947,-28370,1524
1284860,13756,-3380,6564,1738,-31218,-328
1284872,12160,-2576,7336,1488,-31716,-2468
1284884,11032,-3640,7388,894,-31374,-4317
1284896,11412,-4668,7488,781,-30931,-4393
1284908,12756,-5540,7684,1562,-29746,-2171
1284928,13988,-4948,6500,1081,-28720,973
1284940,13768,-2968,5244,770,-30517,1489
1284952,12276,-3080,1688,788,-31983,-1171
1284964,11600,-2460,1828,196,-30153,-6338
1284976,11824,-3316,1868,-523,-28583,-9579
1284988,12636,-5680,2292,-316,-29256,-7693
1285000,13864,-5504,2508,170,-31091,-2344
1285012,12800,-4428,2312,-806,-31155,404
1285024,10548,-2720,1072,-1619,-28828,-1022
1285036,8444,-3028,640,-3285,-26714,-6944
1285052,7752,-3128,-2092,-3094,-20867,-14284
1285064,8784,-3692,-4388,-1972,-17097,-16529
1285076,8840,-4204,-4268,-1630,-17771,-14879
1285088,9236,-4100,-6220,-2088,-22754,-11986
1285100,9328,-4704,-7696,-2072,-26520,-10813
1285112,9376,-4912,-8592,-4229,-27783,-10877
1285124,7892,-5724,-8876,-8495,-29038,-12819
1285136,7616,-5568,-9184,-11178,-30145,-15801
1285148,6752,-6168,-7636,-14108,-31632,-18344
1285160,4996,-5844,-6024,-15349,-32352,-19360
1285178,2388,-4976,-3736,-16320,-31880,-20714
1285190,124,-3936,-4032,-17389,-30155,-24533
1285202,-1036,-2200,-4028,-19540,-24311,-29710
1285214,-5328,-3280,-7208,-22876,-19034,-32768
1285226,-4820,-440,-8160,-27842,-19127,-32768
1285238,-9556,-3032,-13044,-27703,-18769,-32768
1285250,-7740,296,-6176,-31035,-22122,-32768
1285262,-9584,2348,-3844,-32768,-31040,-32768
1285274,-7480,2540,-40,-32768,-31981,-32768
1285286,-7288,4368,2404,-32768,-30298,-29808
1285304,-5012,7836,5004,-21145,-12442,-8664
1285316,-1612,9100,2764,-5634,3172,2825
1285328,-692,10548,-2000,9547,12189,9615
1285340,2632,9140,-5984,19620,15948,12820
1285352,5936,6420,-10576,22145,15246,12649
1285364,8956,2808,-13448,20820,9726,14096
1285376,10072,896,-14564,15555,9047,10699
1285388,9540,196,-17240,11397,5326,7513
1285400,7524,1720,-16460,7847,1214,3733
1285412,5164,1900,-16396,5864,1287,-2627
1285430,3000,1328,-15648,2920,4774,-10384
1285442,2052,728,-15816,2105,5792,-11149
1285454,1944,1132,-15668,1949,6951,-9361
1285466,1436,2244,-15824,2310,7477,-6144
1285478,1476,3180,-15332,3267,6571,-2101
1285490,1784,4492,-14624,3998,5520,1010
1285502,1840,5200,-14244,4648,4152,1985
1285514,1508,5496,-14432,5316,3085,1541
1285526,1588,5892,-13976,4308,3147,278
1285538,1744,5952,-13932,3261,3535,-931
1285556,2244,5864,-13636,2551,4318,-1608
1285568,2796,6464,-12808,1961,5161,-1759
1285580,2008,7784,-12420,1298,5736,-2491
1285592,1296,8068,-12652,1069,5541,-3851
1285604,36,8628,-12324,994,4179,-5389
1285616,-1792,9088,-12232,464,2800,-7195
1285628,-2832,8056,-12100,865,-236,-8028
1285640,-3824,7656,-10832,1344,-456,-7686
1285652,-4952,7996,-10008,1383,343,-6785
1285664,-4804,7976,-8628,1307,2708,-6355
1285682,-4548,7944,-8092,1985,6859,-5981
1285694,-4348,7980,-8228,2059,8182,-5950
1285706,-4172,7684,-8508,2356,8138,-5720
1285718,-4068,7368,-8420,2407,7889,-5502
1285730,-3636,6564,-8268,2199,7677,-5160
1285742,-3168,5996,-8044,1743,8057,-4266
1285754,-2984,5952,-7564,1796,8316,-3096
1285766,-2704,6072,-6404,1570,9910,-2205
1285778,-2692,6012,-6844,1829,11626,-2073
1285790,-2260,5088,-6712,2871,12137,-1871
1285806,-1476,4296,-5672,3436,12909,-884
1285818,-712,3896,-5328,3532,13857,-654
1285830,-168,3872,-4932,3294,14718,-851
1285842,16,3652,-4936,3199,15690,-1029
1285854,256,3300,-4648,3079,15559,-304
1285866,1060,2540,-4124,3075,14909,1112
1285878,1760,2092,-3396,3233,14363,2805
1285890,2636,1748,-2448,2941,14582,3738
1285902,3304,960,-1856,2852,15505,3627
1285914,3980,20,-1692,3767,15582,4134
1285932,5800,-988,-952,3803,16508,6313
1285944,7192,-1184,-1440,3979,17331,7539
1285956,7564,-1008,-612,4175,18300,8250
1285968,8724,-984,256,3493,19228,8340
1285980,8860,-1640,1816,2064,19325,7286
1285992,8740,-2912,3368,280,18944,6053
1286004,12196,-3132,3012,1270,17857,6898
1286016,13064,-3976,2052,4395,18018,11652
1286028,12664,-4696,2060,7645,18939,12366
1286040,14452,-5068,2992,9293,19737,13263
1286058,16388,-7008,3396,10211,21478,14561
1286070,18216,-7788,3812,10272,21495,13305
1286082,19388,-8508,4552,10245,22301,13741
1286094,18864,-7420,5716,9421,20038,14435
1286106,17308,-8348,4660,9335,18807,15422
1286118,16776,-10324,5324,11639,19174,16688
1286130,18564,-12276,7692,14560,18505,18783
1286142,20848,-13688,9084,18604,16652,21673
1286154,23580,-16276,10376,21060,18237,21345
1286166,24216,-15752,10488,18774,21743,18283
1286184,22640,-17176,9044,11580,27339,11308
1286196,22132,-17560,8308,7872,28144,10160
1286208,23260,-17536,10012,6191,27255,10651
1286220,23588,-16836,12116,6315,27325,12375
1286232,24692,-15248,13100,7049,27615,14958
1286244,22820,-17812,11260,9441,28014,16939
1286256,24764,-18352,10152,12126,28312,17563
1286268,27172,-18092,11216,13734,26498,19674
1286280,28772,-17560,12228,13851,23025,20202
1286292,29156,-15980,13748,12422,22270,18164
1286311,28084,-14504,14124,9175,22171,11764
1286323,26888,-13472,14740,6740,21296,8582
1286335,25288,-13120,15172,5517,19854,5899
1286347,24668,-13156,15496,5475,18574,4686
1286359,23448,-14296,13604,8069,17296,5749
1286371,21052,-14592,12548,10465,17407,6610
1286383,20360,-15716,12864,10876,16705,7270
1286395,20524,-15548,13024,10594,15661,8064
1286407,19836,-15848,13760,10085,15716,7605
1286419,19532,-14588,14808,8412,15190,5962
1286438,19604,-15016,15500,4219,16371,3767
1286450,18880,-15584,16352,2741,18681,350
1286462,18996,-14280,16040,672,20505,-504
1286474,16984,-14020,15744,-1055,21441,-1524
1286486,17184,-14004,15292,-1225,22048,-2049
1286498,17276,-14148,15272,-663,22882,-1742
1286510,17832,-13972,14944,-27,23055,-1437
1286522,17536,-13604,14864,263,23841,-1381
1286534,17688,-13092,15008,-398,24701,-2807
1286546,18000,-12372,15076,-1551,24818,-4076
1286565,17692,-12268,15032,-3583,24679,-6446
1286577,17456,-12060,14496,-3877,24949,-7044
1286589,17084,-11668,13884,-3713,24803,-7539
1286601,16520,-11832,13624,-3023,24907,-7964
1286613,16640,-11528,13632,-3059,23094,-8186
1286625,15748,-10908,12984,-3138,22279,-7350
1286637,13784,-10808,13536,-4300,19260,-8387
1286649,14428,-10952,14372,-5589,16108,-9737
1286661,14772,-10996,14664,-6136,14332,-10053
1286673,14320,-11028,14928,-7381,12349,-11184
1286689,13580,-10552,15432,-9325,12113,-13021
1286701,14120,-10472,16364,-10401,11568,-13812
1286713,14316,-10592,16316,-10696,10271,-13859
1286725,13932,-10296,15812,-10584,8181,-14152
1286737,13152,-10260,15592,-10873,6352,-15293
1286749,13428,-10976,15840,-11307,4333,-15947
1286761,12952,-11628,16500,-11886,2331,-15937
1286773,12404,-11620,16372,-12487,634,-15947
1286785,12364,-11956,16392,-13077,146,-16563
1286797,13060,-11760,17540,-13403,208,-16250
1286816,12344,-11660,17504,-13420,2270,-16259
1286828,11724,-11088,16500,-13037,3961,-17265
1286840,12032,-10200,15468,-12540,4874,-19446
1286852,12700,-10236,14536,-13474,3416,-20749
1286864,13012,-11284,14012,-13513,2354,-20971
1286876,13780,-11476,13576,-13831,1048,-19514
1286888,14696,-10792,13792,-14047,470,-17956
1286900,16532,-10784,12860,-13581,-328,-16452
1286912,17600,-9972,12648,-12780,-2721,-15468
1286924,19496,-9696,14388,-12455,-4477,-16965
1286943,20952,-8560,13840,-13649,-3228,-17677
1286955,20660,-8304,12964,-14370,-3878,-21135
1286967,22368,-7652,12852,-14080,-4601,-23585
1286979,23184,-6988,13100,-13295,-7630,-23345
1286991,22876,-5984,13524,-13137,-11754,-21874
1287003,22052,-5164,13472,-12343,-15707,-20554
1287015,21800,-4100,13652,-10576,-18571,-18913
1287027,21376,-3388,14368,-8696,-22691,-16809
1287039,19136,-2060,13736,-8247,-26457,-14692
1287051,18824,-2100,12320,-6652,-26128,-12390
1287070,18068,-1592,11868,-3685,-29145,-7632
1287082,17420,-2356,10596,-2841,-29582,-5870
1287094,17116,-3112,8748,-1828,-30082,-3920
1287106,16160,-2068,8136,-1101,-31225,-1870
1287118,15692,-536,7660,541,-32768,-709
1287130,13928,-420,6964,-196,-32768,-792
1287142,13788,-1184,4816,388,-32768,-784
1287154,13060,-1360,3380,1461,-32768,30
1287166,12192,-840,2376,1375,-32768,-740
1287178,12136,-1140,1180,791,-32768,-2619
1287197,11588,-2184,-172,1268,-30399,-5297
1287209,12052,-2896,252,2309,-29999,-5165
1287221,11252,-2480,636,2484,-30776,-3941
1287233,11028,-1980,416,2795,-30631,-3165
1287245,10228,-1452,-44,2739,-30216,-3851
1287257,9272,-1272,-848,2747,-29030,-6399
1287269,8676,-924,-1692,2704,-27090,-9821
1287281,8232,-1984,-2392,2300,-24961,-13206
1287293,7480,-2628,-2872,2988,-22936,-15107
1287305,7404,-3404,-3384,4412,-21576,-15588
1287324,6932,-3560,-3272,4848,-21707,-13489
1287336,6348,-3516,-4220,5333,-19936,-12858
1287348,6032,-3200,-4312,4984,-17879,-13524
1287360,5740,-3296,-4240,3422,-16370,-15064
1287372,6684,-3348,-5548,2804,-15386,-15843
1287384,6968,-3004,-6452,2249,-15107,-15844
1287396,6776,-3044,-6832,2727,-16181,-16115
1287408,6840,-2916,-5716,2596,-16715,-16416
1287420,6712,-2936,-5684,2907,-15509,-17344
1287432,6512,-2964,-5284,3299,-13671,-18985
1287451,5912,-2520,-5672,3350,-8978,-22428
1287463,6732,-2888,-5292,3035,-6726,-23125
1287475,6176,-3264,-6836,3517,-6031,-22492
1287487,6692,-2968,-7368,2968,-5549,-21511
1287499,6856,-2432,-7588,2569,-6516,-20006
1287511,7000,-1692,-7392,1883,-6901,-18822
1287523,7300,-1228,-7808,1153,-7032,-17878
1287535,6828,-820,-8448,2020,-6623,-17904
1287547,6092,-1376,-8304,2469,-4736,-20454
1287559,7548,-1788,-8744,2154,-2363,-20213
1287578,7868,-2648,-9004,1515,-465,-18202
1287590,8332,-2844,-9968,322,-643,-16210
1287602,8320,-1968,-10512,-268,-1570,-14581
1287614,8588,-1472,-10796,-1039,-1829,-14523
1287626,7972,-928,-10412,-1978,-1635,-15251
1287638,9012,-184,-10792,-3170,-550,-15371
1287650,9196,-296,-10948,-3147,-1121,-15385
1287662,9256,-136,-11440,-3167,-1483,-14994
1287674,9004,-512,-11480,-3573,-964,-14423
1287686,10388,220,-11080,-5235,-3080,-12139
1287705,9780,660,-11900,-6761,-8693,-7860
1287717,8596,548,-11324,-7639,-6887,-8269
1287729,10468,-272,-13104,-9532,-10444,-7752
1287741,9756,440,-15272,-12926,-13828,-5466
1287753,7696,-864,-15404,-15938,-17933,-3814
1287765,8112,-12,-13932,-17740,-24119,-1598
1287777,6820,-160,-11880,-20923,-27580,-2102
1287789,5852,2956,-7380,-23176,-25978,-5231
1287801,6940,4976,-5228,-22802,-19864,-8438
1287813,6944,6452,-3484,-20413,-10502,-11720
1287829,5412,9432,-4684,-15691,2237,-13885
1287841,6336,9096,-6452,-11111,9697,-13756
1287853,7452,8168,-8160,-5321,11989,-10514
1287865,8836,7256,-10196,24,9976,-4542
1287877,9924,6408,-11684,4565,4929,2312
1287889,10868,6564,-11996,7660,-519,6864
1287901,10796,7472,-11832,8675,-3538,7546
1287913,10380,7448,-12096,7982,-3686,4260
1287925,9552,6420,-12048,6927,-3078,385
1287937,8728,5144,-12900,6468,-3207,-2282
1287956,7612,3124,-13648,5306,-3788,-2626
1287968,7008,2512,-13740,4991,-3304,-1383
1287980,6556,2304,-14208,4924,-2967,25
1287992,6364,2620,-14424,5111,-2427,1169
1288004,6048,3044,-14860,4970,-1618,1804
1288016,5968,2984,-15480,4433,-1048,1670
1288028,6416,2684,-15744,3612,-1090,1410
1288040,6312,2864,-15788,2837,-1204,783
1288052,6044,3080,-15640,1369,-766,-275
1288064,5712,3184,-15348,255,-564,-977
1288083,5456,3816,-14736,-148,-472,-679
1288095,5416,3984,-14500,-20,-309,-363
1288107,5556,3964,-14304,335,83,369
1288119,5436,3984,-14136,487,142,1163
1288131,5596,4224,-14120,721,-269,2128
1288143,5292,4416,-14336,766,-879,2566
1288155,5436,4180,-14156,455,-1895,2754
1288167,5860,4192,-14388,75,-2139,2618
1288179,5316,4680,-14488,19,-2997,2225
1288191,5124,4888,-14076,-649,-3369,1487
1288210,4712,4796,-13816,-934,-2541,547
1288222,4516,4884,-13672,-733,-2289,421
1288234,4476,4888,-13416,-526,-1911,622
1288246,4300,5024,-13468,15,-1439,1099
1288258,4176,5072,-13688,544,-1412,1554
1288270,4504,4840,-13600,648,-1106,1927
1288282,4440,4924,-13860,638,-1040,2242
1288294,4624,4880,-13860,517,-1480,2264
1288306,4588,4936,-13820,256,-1864,1891
1288318,4480,5204,-14060,-124,-2024,1099
1288337,4208,5152,-13788,-439,-2767,-90
1288349,4208,5196,-13580,-559,-3026,-111
1288361,3712,5448,-13680,-398,-3076,9
1288373,3584,5444,-13388,-91,-3036,180
1288385,3568,5500,-13484,429,-2879,339
1288397,3452,5336,-13764,750,-2718,564
1288409,3220,5456,-13928,794,-2738,800
1288421,3088,5484,-14044,964,-3077,719
1288433,2952,5408,-14160,761,-3231,330
1288445,2752,5328,-14200,479,-3393,42
1288461,2756,5284,-14244,338,-3872,-41
1288473,2396,5264,-14216,376,-3570,-26
1288485,2480,5024,-14016,58,-3348,-83
1288497,2192,4920,-14300,-176,-3129,-30
1288509,1928,5116,-14116,-471,-3245,14
1288521,1716,5312,-13816,-593,-3245,-160
1288533,1516,5428,-13536,-552,-2966,-494
1288545,1428,5632,-13440,-531,-2590,-813
1288557,1380,5524,-13580,-166,-2449,-994
1288569,1260,5480,-13272,76,-2383,-993
1288588,1140,5452,-13276,378,-1724,-1146
1288600,1212,4908,-13432,471,-1692,-1036
1288612,1096,4424,-14232,657,-2468,-385
1288624,856,4980,-14048,324,-3517,441
1288636,820,4852,-13912,-129,-3435,373
1288648,464,4832,-13840,-358,-3036,90
1288660,636,4812,-13708,-552,-2841,-107
1288672,356,4596,-13720,-529,-2347,-113
1288684,292,4860,-13956,-297,-1953,-83
1288696,240,4652,-13916,-87,-1708,-127
1288715,504,4732,-14160,191,-791,-4
1288727,584,4784,-14164,155,-786,-156
1288739,592,4652,-14292,34,-858,-303
1288751,604,4360,-14380,-168,-1152,129
1288763,676,4188,-14640,-221,-1464,759
1288775,580,4264,-14568,-363,-1566,1176
1288787,544,4468,-14360,-543,-1662,1305
1288799,628,4548,-14104,-813,-1498,1191
1288811,540,4680,-14076,-905,-1325,1083
1288823,572,4968,-14004,-859,-1130,905
1288842,472,5140,-14128,-816,-863,567
1288854,416,5244,-14344,-906,-786,307
1288866,220,5104,-14216,-943,-699,93
1288878,336,4912,-14304,-964,-742,189
1288890,248,4764,-14092,-825,-625,648
1288902,160,4916,-14476,-537,-697,1308
1288914,48,5148,-14376,-763,-798,1622
1288926,320,5192,-14320,-908,-666,1696
1288938,416,5556,-14052,-992,-303,1551
1288950,492,5580,-13872,-1060,-105,1305
1288969,564,5612,-13764,-1075,362,783
1288981,560,5416,-14088,-925,431,708
1288993,756,5344,-14156,-698,267,955
1289005,632,5292,-14040,-535,113,970
1289017,864,5244,-14012,-524,81,838
1289029,780,5468,-14140,-712,-39,525
1289041,952,5420,-13888,-893,-66,218
1289053,740,5424,-14092,-827,-247,88
1289065,828,5500,-13924,-801,-460,103
1289077,664,5488,-13880,-659,-522,147
1289093,548,5324,-13948,-613,-522,147
1289105,524,5320,-14140,-722,-927,250
1289117,400,5408,-13648,-746,-884,198
1289129,312,5612,-13884,-713,-484,-68
1289141,276,5592,-13876,-702,-482,-177
1289153,320,5520,-13824,-608,-540,-114
1289165,256,5620,-13844,-457,-368,-179
1289177,-4,5508,-13952,-452,-146,-268
1289189,-68,5528,-14020,-509,-104,-299
1289201,-96,5552,-14104,-540,95,-288
1289219,-152,5472,-14148,-561,-95,-12
1289231,-60,5540,-14148,-559,-96,131
1289243,-112,5680,-13940,-538,103,142
1289255,8,5772,-14036,-487,211,111
1289267,80,5784,-14128,-395,122,224
1289279,128,5908,-14164,-332,-160,158
1289291,184,5592,-13820,-261,-361,79
1289303,368,5424,-13732,-94,17,107
1289315,192,5672,-13968,71,66,206
1289327,348,5564,-13972,263,-297,228
1289345,292,5200,-14184,338,-220,588
1289357,260,5232,-14028,185,-158,698
1289369,240,5196,-14292,103,70,632
1289381,172,5156,-14444,-82,58,454
1289393,308,5060,-14336,-328,12,399
1289405,264,5156,-14220,-408,6,357
1289417,320,5212,-14104,-446,91,168
1289429,292,5276,-14152,-512,-52,-43
1289441,396,5136,-14008,-480,-217,-15
1289453,372,5196,-14024,-426,-172,119
1289472,196,5448,-14084,-495,-229,-127
1289484,188,5268,-14108,-485,-167,-211
1289496,96,5312,-14068,-597,-160,-119
1289508,108,5420,-13916,-565,-180,-61
1289520,-32,5500,-14056,-444,-232,21
1289532,-100,5384,-14100,-362,-277,165
1289544,-28,5344,-13972,-345,-500,345
1289556,-108,5196,-13824,-401,-473,445
1289568,-108,5420,-13840,-458,-436,463
1289580,-84,5484,-13772,-515,-130,240
1289596,-176,5444,-13788,-540,-22,68
1289608,36,5428,-13876,-466,-138,153
1289620,80,5504,-14008,-300,-115,100
1289632,-160,5444,-14048,-344,-208,113
1289644,-116,5376,-13876,-507,-236,138
1289656,-312,5424,-13832,-665,-172,-3
1289668,-444,5384,-13864,-690,-57,-52
1289680,-420,5372,-13784,-723,5,174
1289692,-324,5464,-13880,-661,83,374
1289704,-280,5600,-13896,-530,203,590
1289723,-88,5656,-13796,-360,260,732
1289735,-44,5544,-13780,-337,295,838
1289747,-104,5472,-13784,-139,311,925
1289759,76,5560,-13936,-122,270,1010
1289771,68,5476,-14100,-189,154,1014
1289783,288,5480,-13820,-229,115,891
1289795,412,5512,-13960,-263,318,778
1289807,380,5588,-14100,-306,378,666
1289819,388,5368,-14328,-247,88,515
1289831,476,5412,-14080,-428,25,498
1289849,368,5616,-14312,-331,156,354
1289861,216,5576,-14156,-369,113,183
1289873,284,5444,-14032,-455,44,2
1289885,224,5252,-13976,-423,-10,-66
1289897,204,5324,-14120,-446,-23,8
1289909,160,5400,-13832,-556,-173,48
1289921,76,5536,-13872,-672,-162,-198
1289933,-60,5700,-13676,-716,-49,-461
1289945,-88,5636,-13744,-750,-116,-550
1289957,-24,5688,-13880,-835,-155,-500
1289975,-328,5924,-13800,-789,-89,-832
1289987,-168,5984,-13604,-843,80,-1016
1289999,-376,6084,-13784,-819,62,-1156
1290011,-364,5908,-13756,-735,-165,-1057
1290023,-272,5888,-13820,-599,-444,-808
1290035,-408,5856,-13740,-299,-639,-602
1290047,-496,5904,-13848,0,-680,-312
1290059,-280,5484,-13884,174,-754,-53
1290071,-188,5324,-14040,384,-748,305
1290083,-452,5440,-14488,334,-800,361
1290099,-232,5156,-14284,38,-708,295
1290111,-384,5316,-14332,-136,-561,66
1290123,-496,5292,-14448,-510,-476,-402
1290135,-480,5080,-14268,-772,-176,-709
1290147,-632,5140,-14380,-1001,-132,-784
1290159,-672,5184,-14296,-1062,-42,-659
1290171,-684,5380,-13988,-1089,113,-504
1290183,-804,5508,-14204,-1158,219,-373
1290195,-672,5496,-14212,-1129,155,-181
1290207,-584,5564,-14056,-1091,-86,59
1290226,-456,5704,-13796,-1121,-195,216
1290238,-488,5752,-13800,-1224,-103,185
1290250,-400,5788,-13736,-1270,-118,263
1290262,-592,5932,-13840,-1265,-434,307
1290274,-208,6124,-13592,-1174,-211,176
1290286,-328,5976,-13652,-1127,94,72
1290298,-192,5880,-13656,-1049,79,-40
1290310,-248,5920,-13572,-892,34,-4
1290322,-160,6076,-13740,-650,-81,206
1290334,-152,5944,-13972,-398,-88,282
1290352,-188,6176,-14080,-363,-132,201
1290364,-8,6012,-14136,-386,-288,93
1290376,-80,5952,-14136,-495,-350,50
1290388,-112,5720,-14124,-533,-508,139
1290400,-200,5772,-14032,-453,-412,251
1290412,-460,5880,-14208,-510,-324,177
1290424,-244,5544,-14280,-565,-200,172
1290436,-564,5828,-14112,-765,-234,145
1290448,-384,5932,-14092,-938,-132,-71
1290460,-476,5956,-13980,-1057,47,-256
1290492,-416,6188,-13928,-906,120,-167
1290504,-372,6148,-13820,-720,176,-117
1290516,-392,6328,-13948,-600,142,19
1290528,-408,6128,-14164,-503,-83,45
1290540,-436,6196,-14112,-412,-337,42
1290552,-592,5984,-13868,-588,-490,48
1290564,-952,6072,-13980,-807,-669,-53
1290576,-868,6012,-13456,-885,-489,-98
1290588,-1036,6044,-13740,-842,-93,-87
1290600,-1032,6204,-13680,-829,-48,-3
1290616,-944,6100,-13532,-752,212,-20
1290628,-864,6244,-13572,-751,282,-9
1290640,-736,6200,-13516,-664,376,-123
1290652,-744,6384,-13576,-610,212,-356
1290664,-732,6352,-13448,-667,-121,-611
1290676,-768,6404,-13472,-473,-417,-608
1290688,-968,6436,-13348,-305,-400,-508
1290700,-1172,6468,-13152,-196,-288,-526
1290712,-1140,6224,-13220,-96,-383,-480
1290724,-1300,6240,-13144,-32,-370,-337
1290742,-1216,6196,-13324,138,-255,-196
1290754,-1256,6148,-13404,256,-47,-213
1290766,-1160,6020,-13672,212,-122,-96
1290778,-1104,5876,-13780,251,-342,39
1290790,-1184,5968,-13756,149,-556,13
1290802,-1248,5980,-13620,14,-367,-214
1290814,-1388,5996,-13708,-40,-118,-535
1290826,-1576,5860,-13688,-75,2,-599
1290838,-1740,5672,-13840,-95,150,-398
1290850,-1604,5660,-13892,-86,201,-73
1290868,-1432,5784,-13652,-128,156,137
1290880,-1352,5916,-13844,-191,284,-2
1290892,-1296,5860,-13924,-240,300,-79
1290904,-1180,5668,-13968,-307,44,67
1290916,-1132,5796,-13720,-248,-48,203
1290928,-1156,5832,-13696,-308,23,185
1290940,-888,5776,-13628,-296,237,121
1290952,-932,5868,-13620,-318,322,66
1290964,-996,5868,-13792,-220,290,103
1290976,-1004,5788,-13692,-202,308,130
1290994,-872,5724,-14040,-93,249,213
1291006,-1028,5960,-13948,-248,87,26
1291018,-952,5616,-13936,-428,238,-256
1291030,-1212,5604,-13924,-482,245,-154
1291042,-1204,5664,-13836,-475,160,26
1291054,-1312,5864,-13852,-454,287,177
1291066,-1456,6000,-13844,-403,439,260
1291078,-1320,5884,-13964,-330,487,452
1291090,-1192,5924,-13980,-280,641,572
1291102,-1012,5908,-13792,-322,592,553
1291118,-696,6036,-13808,-437,509,483
1291130,-704,6044,-13752,-432,509,384
1291142,-568,6184,-13796,-428,610,304
1291154,-460,6176,-13696,-386,464,341
1291166,-508,6240,-13756,-281,313,470
1291178,-564,6364,-13944,-259,160,395
1291190,-808,6264,-13740,-363,212,130
1291202,-892,6224,-13848,-534,247,-83
1291214,-804,6108,-13784,-548,257,-63
1291226,-912,6104,-13824,-500,183,141
1291244,-960,6244,-13848,-460,298,256
1291256,-1132,6420,-13928,-451,385,194
1291268,-1120,6376,-13704,-512,275,255
1291280,-1064,6308,-13656,-431,336,193
1291292,-1072,6328,-13524,-285,561,339
1291304,-844,6292,-13820,-205,575,501
1291316,-648,6268,-13880,-89,436,516
1291328,-596,6292,-13944,-213,270,364
1291340,-516,6208,-13808,-325,301,71
1291352,-556,6268,-13816,-432,256,-130
1291370,-940,6312,-13752,-411,137,-264
1291382,-1024,6232,-13848,-351,6,-320
1291394,-1132,6108,-13744,-342,15,-148
1291406,-1244,6112,-13832,-292,117,32
1291418,-1360,6060,-13748,-348,241,17
1291430,-1276,6232,-13780,-458,438,-246
1291442,-1252,6428,-13668,-557,619,-354
1291454,-1144,6296,-13612,-483,636,-174
1291466,-1012,6296,-13504,-294,462,94
1291478,-912,6360,-13604,-60,383,289
1291496,-996,6484,-13676,-118,372,71
1291508,-740,6260,-13656,-244,223,-83
1291520,-788,6172,-13648,-147,217,-50
1291532,-800,6048,-13576,-113,275,7
1291544,-704,6172,-13872,43,313,85
1291556,-920,6244,-13840,27,232,83
1291568,-820,6216,-13716,-64,267,-95
1291580,-760,6120,-13744,-213,359,-298
1291592,-676,6032,-13632,-237,336,-337
1291604,-744,6048,-13832,-146,336,-302
1291622,-784,6136,-13720,-118,288,-239
1291634,-916,6100,-13724,-150,279,-293
1291646,-1088,6156,-13816,-113,279,-363
1291658,-1024,6032,-13444,-190,370,-425
1291670,-1108,6004,-13544,-204,410,-512
1291682,-1200,5856,-13820,-178,336,-458
1291694,-1072,5760,-13712,-105,261,-105
1291706,-1028,6000,-13600,-36,209,4
1291718,-1084,5976,-13760,0,317,-43
1291730,-1108,6028,-13764,-113,345,-143
1291746,-1144,5840,-13672,-196,325,-221
1291758,-1252,5968,-13496,-205,387,-241
1291770,-1184,5840,-13852,-188,488,-139
1291782,-1320,5884,-13900,-262,473,-74
1291794,-1124,5784,-13716,-373,386,18
1291806,-1184,5948,-13472,-394,636,-16
1291818,-1068,5992,-13684,-347,802,-106
1291830,-996,6064,-13640,-281,749,-29
1291842,-848,6024,-13628,-250,538,138
1291854,-920,6180,-13732,-160,499,110
1291872,-792,6108,-13608,-83,486,-97
1291884,-804,6020,-13636,56,452,60
1291896,-1024,5916,-14020,169,388,257
1291908,-1140,5812,-13924,6,413,346
1291920,-1000,5720,-13872,-63,229,420
1291932,-1032,5856,-13756,-99,428,411
1291944,-984,5920,-13756,-215,659,284
1291956,-860,5996,-13828,-260,737,165
1291968,-704,6016,-13676,-280,754,123
1291980,-544,6108,-13764,-306,582,41
1291998,-512,5952,-13552,-202,521,152
1292010,-552,6140,-13760,-74,450,232
1292022,-636,6124,-13956,17,341,204
1292034,-568,6084,-13872,-15,173,240
1292046,-764,6064,-13960,24,189,274
1292058,-716,5900,-14004,69,304,294
1292070,-720,6024,-13928,-11,425,242
1292082,-756,6020,-14076,-102,363,285
1292094,-636,5900,-13864,-116,388,315
1292106,-568,5980,-13944,-225,372,169
1292124,-668,6040,-13924,-331,435,-29
1292136,-784,6040,-13648,-287,459,-86
1292148,-808,5792,-14016,-168,553,-31
1292160,-816,5840,-13972,-150,373,194
1292172,-708,5844,-13800,-165,322,256
1292184,-612,5996,-13704,-215,462,116
1292196,-660,5856,-13968,-285,543,-10
1292208,-648,6016,-13812,-339,386,126
1292220,-676,5968,-13620,-248,378,191
1292232,-776,6084,-13748,-72,504,196
1292248,-740,5864,-14020,-32,556,291
1292260,-616,5600,-14204,63,373,549
1292272,-552,5744,-14096,-77,304,694
1292284,-404,5568,-14132,-124,297,580
1292296,-380,5732,-14004,-241,348,495
1292308,-420,5948,-14108,-355,260,357
1292320,-304,5876,-13968,-315,251,290
1292332,-416,5820,-14044,-274,396,249
1292344,-456,5860,-14208,-266,332,144
1292356,-440,5612,-13948,-298,338,254
1292374,-568,5512,-14180,-206,326,698
1292386,-472,5720,-14244,-274,167,894
1292398,-492,5876,-14296,-331,12,890
1292410,-420,5944,-14040,-435,125,724
1292422,-568,5932,-14132,-500,200,612
1292434,-460,5772,-14036,-544,183,714
1292446,-356,5860,-13924,-467,174,834
1292458,-140,6092,-13784,-429,130,810
1292470,-144,6116,-13636,-383,140,593
1292482,-148,6292,-13724,-383,-16,396
1292500,-428,6276,-13756,-404,-337,249
1292512,-636,6272,-13772,-472,-452,182
1292524,-824,6088,-13760,-356,-526,201
1292536,-1140,6064,-13488,-329,-399,242
1292548,-1124,5896,-13624,-230,-393,423
1292560,-1216,5920,-13564,-171,-192,550
1292572,-1128,6096,-13480,-47,-64,566
1292584,-1096,5940,-13544,0,26,603
1292596,-988,5936,-13612,-72,-115,665
1292608,-752,5868,-13512,-165,-343,501
1292626,-768,5884,-13376,-281,-253,105
1292638,-912,5972,-13432,-233,-95,62
1292650,-1060,6088,-13508,-200,-24,50
1292662,-1120,6072,-13560,-82,-51,77
1292674,-1080,5788,-13540,141,87,307
1292686,-900,5664,-13844,266,59,594
1292698,-1064,5652,-14100,237,-35,804
1292710,-816,5520,-14052,115,-267,720
1292722,-848,5612,-14020,-149,-41,545
1292734,-968,5400,-13920,-436,14,412
1292750,-976,5792,-14020,-474,268,441
1292762,-980,5776,-13920,-363,327,536
1292774,-808,5848,-13988,-268,287,755
1292786,-632,5720,-14120,-164,301,952
1292798,-536,5800,-14144,-308,140,1003
1292810,-544,5688,-14024,-489,155,832
1292822,-496,5836,-14028,-593,123,624
1292834,-424,5832,-13840,-761,59,451
1292846,-512,6072,-13700,-771,104,339
1292858,-548,6144,-13756,-678,120,344
1292876,-652,6144,-13688,-559,212,242
1292888,-632,6112,-13676,-549,191,142
1292900,-772,5952,-13752,-466,196,190
1292912,-792,5948,-13792,-475,177,373
1292924,-1024,6044,-13916,-495,97,501
1292936,-968,6020,-13800,-596,106,489
1292948,-984,6164,-13768,-575,128,561
1292960,-912,6096,-13720,-583,215,600
1292972,-800,6184,-13712,-404,455,612
1292984,-752,6024,-14052,-249,362,811
1293002,-544,6176,-13888,-276,239,860
1293014,-492,6156,-13752,-347,308,602
1293026,-388,6192,-13952,-450,245,418
1293038,-480,6240,-13908,-466,88,515
1293050,-544,6172,-13888,-394,-43,627
1293062,-556,6176,-13880,-337,62,833
1293074,-688,6180,-13848,-219,-5,917
1293086,-580,6220,-13736,-250,65,878
1293098,-616,6224,-13616,-270,162,726
1293110,-556,6220,-13736,-220,197,645
1293128,-448,6172,-13808,-75,58,867
1293140,-292,6092,-13700,47,-38,936
1293152,-324,6084,-13992,144,-95,969
1293164,-420,6060,-14068,22,-138,847
1293176,-504,6020,-13952,-111,-200,735
1293188,-660,5988,-13808,-191,-72,618
1293200,-720,6160,-13804,-235,-42,475
1293212,-768,6020,-13876,-251,-40,417
1293224,-888,6056,-13992,-187,-65,471
1293236,-916,6016,-13832,-169,-90,653
1293252,-960,5852,-13788,-216,-158,941
1293264,-828,5968,-13712,-270,-85,912
1293276,-872,6044,-13568,-256,148,767
1293288,-792,6004,-13764,-366,206,686
1293300,-632,6144,-13656,-336,198,618
1293312,-560,6292,-13592,-299,181,522
1293324,-488,6340,-13504,-264,100,292
1293336,-704,6180,-13688,-226,131,152
1293348,-640,6048,-13536,-191,85,251
1293360,-700,5900,-13620,-145,-129,417
1293378,-836,6084,-13680,-223,-84,273
1293390,-932,6016,-13668,-257,109,180
1293402,-868,6020,-13756,-383,-7,279
1293414,-832,6144,-13464,-316,-53,294
1293426,-904,6240,-13548,-348,193,117
1293438,-852,6352,-13568,-364,204,-106
1293450,-820,6468,-13448,-294,191,-111
1293462,-848,6564,-13480,-194,229,-91
1293474,-1148,7008,-13496,-114,248,-303
1293486,-1128,6776,-13564,-204,346,-569
1293504,-1268,6868,-13728,-138,320,-456
1293516,-1344,7020,-13912,-168,566,-482
1293528,-1428,7172,-14076,-263,627,-762
1293540,-1336,7320,-14496,-307,715,-901
1293552,-1448,7632,-14492,-467,1107,-1332
1293564,-1328,7936,-14560,-801,1221,-2206
1293576,-1664,8148,-14736,-1188,1488,-3167
1293588,-1836,8616,-14464,-1541,1579,-4034
1293600,-2152,8652,-14412,-1708,1657,-4615
1293612,-2628,9056,-13964,-1908,1853,-5272
1293630,-3208,9100,-13284,-2113,1922,-6173
1293642,-3564,9208,-12500,-1469,2503,-6350
1293654,-4216,9516,-12272,-158,3369,-6095
1293666,-4276,10064,-12552,1393,3918,-5809
1293678,-4368,10528,-12488,2458,4525,-5829
1293690,-4228,10396,-12624,3401,5078,-6200
1293702,-3864,10288,-12952,4279,5130,-6721
1293714,-3416,10284,-12940,4529,4659,-7184
1293726,-2832,9460,-12388,4639,3945,-7356
1293738,-2828,9048,-11776,4934,2721,-6042
1293756,-2400,8796,-10212,6424,615,-3639
1293768,-1260,7848,-8972,7896,1351,-3939
1293780,-3824,10496,-6624,9983,4006,-3285
1293792,-3892,9140,-7108,12202,879,-1724
1293804,-5592,9052,-7092,14345,-567,-4362
1293816,-5700,6424,-6824,14551,696,-7543
1293828,-6340,5176,-6544,14334,836,-7902
1293840,-6272,3804,-6592,14338,914,-6502
1293852,-6624,3572,-6652,14782,1541,-4992
1293864,-6972,3380,-6612,14074,1469,-4204
1293880,-8096,3528,-6552,12460,1858,-5700
1293892,-8684,3252,-6632,10532,3507,-7852
1293904,-9472,2340,-5936,8720,4719,-9580
1293916,-9124,1368,-4744,7404,6109,-9814
1293928,-9068,1068,-3392,6890,8299,-8610
1293940,-8756,1052,-1800,6942,10997,-6662
1293952,-7500,1136,-648,6532,13865,-4741
1293964,-6044,1064,284,6468,14594,-2290
1293976,-4536,1552,2500,6726,14575,-824
1293988,-3220,1772,4460,6684,15417,-742
1294006,-1728,1364,7464,5500,21020,-7392
1294018,1548,168,8948,6081,25023,-9674
1294030,2428,-888,12972,6579,26861,-8803
1294042,3036,-2784,13548,5938,26607,-6076
1294054,3980,-2508,16132,7980,30270,-5634
1294066,5348,-4328,18228,7402,27512,-3504
1294078,4296,-3996,18104,8800,31265,-2021
1294090,6416,-5780,18136,10499,32767,-1526
1294102,8064,-6728,19352,11981,32767,-1193
1294114,10688,-8576,19544,12100,32767,-885
1294132,13352,-10712,24144,9615,32767,-111
1294144,15288,-14068,22200,8596,32767,-254
1294156,11716,-12588,21232,8316,32100,5888
1294182,11716,-12588,21232,8316,32100,5888
1294193,30020,-15652,32767,10950,32767,8743
1294205,29400,-16156,32767,9419,32767,5474
1294217,30860,-16468,32767,4290,32767,2756
1294229,31568,-16824,32767,-4955,32767,-2058
1294241,32767,-18912,32767,-11841,32767,-3216
1294253,32767,-22636,32767,-13274,32767,-227
1294271,32767,-23772,32767,-3861,32767,3234
1294283,32767,-22036,32767,-5788,32767,6176
1294295,32767,-22008,32767,-7487,32767,14466
1294307,32767,-22944,32767,-5693,32767,14591
1294319,32767,-25664,32767,-3130,32767,15722
1294331,32767,-26008,32767,-4634,32767,14415
1294343,32767,-22788,32767,-14636,32767,7588
1294355,32767,-19116,32767,-26741,32767,-2742
1294367,32767,-15060,32767,-32768,32767,-8700
1294379,32767,-11720,32767,-32768,32767,-9800
1294397,32767,-6056,29636,-32768,32767,-472
1294409,32767,-4164,26736,-31033,32767,2570
1294421,32767,-1940,25456,-26838,32767,1646
1294433,32767,164,25072,-22916,32767,4032
1294445,32767,740,24792,-15332,32767,3743
1294457,32767,1488,24428,-7724,32767,977
1294469,32767,12,23604,-1414,32767,-3073
1294481,32767,-1436,24356,3082,32767,-8760
1294493,32767,-2272,23608,4780,32767,-12512
1294505,32767,-2644,21412,5883,32767,-12753
1294523,32767,-3224,22028,-1022,20672,-21117
1294535,32767,-4520,20996,-6816,10845,-26596
1294547,32767,-8424,23440,-12861,3403,-32768
1294559,32767,-11080,24980,-17215,-2614,-32768
1294571,32767,-12420,24724,-18293,-8151,-32768
1294583,31324,-13124,25104,-18011,-13758,-32768
1294595,30392,-11696,24692,-19341,-20552,-32768
1294607,28988,-10480,23840,-20411,-24757,-32768
1294619,28808,-9628,24080,-20067,-31542,-32768
1294631,28908,-7960,26076,-19210,-32768,-32768
1294649,27088,-2420,28240,-17268,-32768,-23173
1294661,25208,1644,27976,-14390,-32768,-18516
1294673,18748,6100,27368,-11847,-32768,-14286
1294685,16552,8088,24248,-9296,-32768,-12094
1294697,16244,8644,20712,-6112,-32768,-8908
1294709,15832,9588,16404,-3253,-32768,-6417
1294721,16024,9136,12348,-1031,-32768,-1965
1294733,16364,9312,8368,338,-32768,3924
1294745,15644,10560,6648,-1104,-32768,9196
1294757,16232,10084,6116,-3595,-32768,12428
1294784,15300,10000,4376,-5834,-32768,8115
1294796,15028,8544,3480,-6072,-32768,2703
1294808,14032,7348,4180,-5202,-32768,-2744
1294820,15680,5640,7660,-3811,-32768,-6168
1294832,11780,4136,9660,-3973,-32768,-9357
1294844,10864,748,10564,-4630,-32768,-13299
1294856,8520,-1168,12748,-5826,-32768,-17495
1294868,5032,-2660,13932,-8448,-32768,-23522
1294880,3640,-3920,12968,-9996,-32768,-29812
1294892,2600,-4124,10220,-11498,-32768,-32768
1294910,3372,-5432,6176,-12165,-32768,-32768
1294922,-1148,-7844,7332,-12659,-32768,-32768
1294934,-6540,-6740,10868,-14132,-32768,-32768
1294946,-7428,-6184,9608,-14402,-32768,-32768
1294957,-10444,-5524,6628,-14959,-28982,-32768
1294969,-11208,-5416,1788,-16471,-15332,-32768
1294981,-11112,-8388,-5420,-18808,-12432,-32768
1294993,-8972,-4248,-2956,-19851,-15503,-32768
1295005,-9536,-124,452,-19440,-18991,-32768
1295017,-7980,4292,4560,-15806,-10856,-32768
1295035,-5536,8556,4496,-9579,11777,-32768
1295047,-4540,9756,900,-5113,18163,-32768
1295059,-2056,8488,-2444,-235,17018,-30734
1295071,-852,5992,-4904,4358,12965,-25020
1295083,1880,1704,-6248,7129,9486,-17122
1295095,3812,-1308,-7552,8036,6214,-9205
1295107,3512,-1404,-7464,9421,6167,-4665
1295119,3336,-2220,-8520,8922,7311,-6794
1295131,2472,-1796,-7600,5269,9762,-12204
1295143,4084,-3244,-8912,2747,15703,-16524
1295161,3712,-2392,-9368,1352,14604,-15688
1295173,2680,-1316,-7916,1688,11204,-13689
1295185,1628,-812,-5916,1605,10166,-12022
1295197,1424,-268,-3756,1973,9192,-9315
1295209,88,84,-2500,3544,8349,-6376
1295221,-1468,228,-1172,5514,8325,-5135
1295233,-1420,-708,408,5931,10077,-4952
1295245,-948,-1768,1012,5971,12603,-3779
1295257,-276,-1540,1944,6097,14030,-1911
1295269,220,-584,2796,5867,14904,-763
1295287,1496,756,4384,4834,14991,-519
1295299,1920,1644,5360,3960,14135,-1473
1295311,2524,1280,6844,3204,12580,-3023
1295323,2800,640,9256,2554,11672,-5106
1295335,3696,-852,11244,2464,12958,-5722
1295347,4604,-2072,13088,3474,15927,-4800
1295359,4992,-3476,13624,5009,20462,-2678
1295371,5836,-4124,14904,6058,25619,-365
1295383,6432,-4524,16408,7773,27731,1271
1295395,8148,-6192,18804,7436,29386,2017
1295413,10876,-8412,20672,6127,30219,3888
1295425,12680,-10268,22492,5750,29205,5930
1295437,18488,-10848,28752,4084,32767,8143
1295449,18356,-13528,26668,3800,32767,10444
1295461,20856,-13516,30028,3930,32767,12207
1295473,23012,-16092,32320,3608,32767,11092
1295485,26136,-19324,31780,5927,32767,11337
1295497,31312,-24072,32767,7945,32767,17108
1295509,32767,-26076,32767,10306,32767,21955
1295521,32767,-26368,32767,10378,32767,23009
1295539,32767,-28484,32767,4645,32767,18439
1295551,32767,-27620,32767,1523,32767,13725
1295563,32767,-27536,32767,-165,32767,11147
1295575,32767,-28392,32767,-1806,32767,11313
1295587,32767,-28948,32767,-940,32767,12971
1295599,32767,-29296,32767,-610,32767,14258
1295611,32767,-28596,32767,246,32767,14045
1295623,32767,-28300,32767,-223,32767,12777
1295635,32767,-28740,32767,-717,32767,14122
1295647,32767,-26688,32767,-224,32767,12800
1295665,32767,-25744,32767,-988,32767,9014
1295677,32767,-24928,31564,-1432,32767,8376
1295689,32767,-22168,28252,-1813,32767,6990
1295701,32767,-19120,25288,-3423,32767,3488
1295713,32767,-16348,22896,-5024,32767,-443
1295725,32767,-14456,21324,-6552,32767,-3512
1295737,32767,-13360,20428,-6802,32767,-6467
1295749,32767,-12952,19964,-5741,32767,-9025
1295761,32767,-12128,19080,-4795,32767,-14768
1295773,32767,-14048,19164,-1779,32767,-21889
1295789,32767,-10568,16384,3415,32767,-26900
1295801,32767,-11508,18292,3587,32767,-31341
1295813,32767,-11948,21672,-734,28829,-32768
1295825,32767,-12936,23456,-8704,22270,-32768
1295837,32767,-13508,24696,-17250,15170,-32768
1295849,32767,-14168,26396,-23486,4798,-32768
1295861,32767,-12808,30684,-25329,-7447,-32768
1295873,32767,-12568,32767,-25053,-20671,-32768
1295885,32767,-14344,32767,-22253,-29591,-32768
1295897,28928,-12280,32767,-19757,-32768,-32768
1295915,23672,-11080,32767,-16798,-32768,-32768
1295927,21204,-9764,32767,-15920,-32768,-32768
1295939,19940,-7504,32767,-14522,-32768,-28038
1295951,18960,-4572,32767,-13504,-32768,-21090
1295963,16076,-1628,31896,-12414,-32768,-14855
1295975,13516,968,29276,-11043,-32768,-9716
1295987,12344,3540,25056,-9710,-32768,-7098
1295999,12692,4116,20940,-8381,-32768,-5002
1296011,11968,5672,17728,-6931,-32768,-1704
1296023,12844,6576,13328,-6583,-32768,5463
1296041,12268,6648,7592,-5805,-32768,8290
1296053,13476,6204,7760,-8215,-32768,10740
1296065,12180,6720,6444,-10441,-32768,9633
1296077,14436,4616,3944,-11489,-32768,7506
1296089,9820,4752,6632,-12600,-32768,4759
1296101,9824,4512,6996,-14546,-32768,-2013
1296113,7116,4816,6732,-16920,-32768,-8176
1296125,10116,1312,3848,-17323,-32768,-13537
1296137,9116,512,6552,-14599,-32768,-17755
1296149,5032,-932,11308,-14761,-32768,-20574
1296167,3584,-4060,13092,-13895,-32768,-25385
1296179,-1780,-3880,18024,-16417,-32768,-28222
1296191,-4128,-4216,13608,-17608,-32768,-32768
1296203,-6384,-2848,12224,-15535,-32768,-32768
1296215,-9264,-1152,10552,-13630,-32768,-32768
1296227,-10176,-1592,6512,-12070,-28242,-32768
1296239,-14856,-544,4628,-9690,-19978,-32768
1296251,-13672,160,2668,-7727,-14549,-32768
1296263,-12344,-3376,-2420,-7995,-7475,-32768
1296275,-10216,-4396,-4008,-7085,-5786,-32768
1296293,-10428,-1052,-5124,-5688,-7593,-32768
1296305,-10424,2784,-3516,-5302,-4363,-32768
1296317,-8548,5112,-1972,-4374,1001,-30981
1296329,-5928,5736,-1896,-2124,5678,-27740
1296341,-1880,5188,-2208,1816,7621,-23553
1296353,2536,3864,-2952,6502,7903,-18273
1296365,7072,1504,-5036,9938,8652,-13571
1296377,9104,960,-5136,9329,8661,-12688
1296389,8868,64,-15704,10788,11243,-12741
1296401,9532,240,-12660,9685,9548,-16274
1296419,7772,-1056,-13868,7090,5712,-20968
1296431,6048,-1484,-13412,6079,3473,-21224
1296443,3612,-1468,-12856,5492,1757,-20464
1296455,1172,-1384,-11516,4730,1463,-19659
1296467,80,-684,-9832,3917,2581,-17961
1296479,-1304,344,-9180,3758,4618,-17046
1296491,-1744,1044,-8860,3883,6538,-16504
1296503,-2196,1692,-9072,3804,8082,-16541
1296515,-2336,1656,-9176,3382,9402,-16814
1296527,-2980,932,-9504,3014,9455,-14748
1296545,-2916,248,-7888,3304,6734,-6919
1296557,-3148,936,-5996,3879,5198,-1738
1296569,-2584,2432,-3384,4376,5314,1427
1296581,-1436,3432,-1228,4999,6459,2498
1296593,-720,4120,12,6274,7962,1801
1296605,432,4180,1108,7143,8974,-304
1296617,1296,4060,1448,7643,10109,-2362
1296629,1692,3024,1316,7388,11264,-3664
1296641,1916,2628,1148,6678,12566,-3689
1296653,1984,1972,780,6175,13312,-3013
1296671,2160,1344,1440,6056,14059,-1638
1296683,2524,468,2264,6583,14510,-1642
1296695,3436,-748,4232,6198,15908,-1723
1296707,4428,-2124,5628,5411,18273,-1498
1296719,5268,-3480,6592,5030,21152,-703
1296731,6268,-4156,8416,4817,23478,54
1296743,7436,-5040,10628,3802,26226,767
1296755,8524,-6396,11468,3502,29441,2100
1296767,9564,-7412,12764,4018,31089,4437
1296779,11072,-8456,14428,4937,31730,6953
1296795,13528,-10500,17552,5205,32767,10849
1296807,15548,-12072,19808,6042,32767,15262
1296819,17932,-13260,22056,8233,32767,19660
1296831,21300,-15500,22840,13197,32767,23830
1296843,24200,-16172,23908,18968,32767,27092
1296855,26288,-16012,25892,21858,32767,25660
1296867,27152,-15916,27640,19602,32767,19944
1296879,27028,-15936,29492,14001,32767,12905
1296891,27076,-17056,29604,9042,32767,7984
1296903,28352,-19648,29212,8958,32767,8760
1296921,30276,-22364,29296,16068,32767,20206
1296933,29828,-20808,30564,20685,32393,26059
1296945,29460,-18456,31892,23069,32767,24316
1296957,29092,-17452,32767,22072,32767,16399
1296969,30060,-19968,32767,17846,30920,8968
1296981,30664,-21824,32767,13857,29946,5251
1296993,31060,-22232,32767,10405,28671,2115
1297005,28592,-20992,32767,7231,29514,-1422
1297017,27728,-21172,32144,3300,30358,-4919
1297029,27544,-22260,32716,-1334,32372,-6628
1297047,26556,-22164,31032,-3871,32767,-7498
1297059,27672,-22204,32060,-5303,32767,-7191
1297071,28372,-22272,31668,-8485,32767,-7192
1297083,31820,-21816,32084,-10649,32767,-7222
1297095,31928,-19136,30704,-11390,32767,-6799
1297107,32767,-16804,29536,-12599,32767,-7777
1297119,32767,-14676,27048,-14262,32767,-10729
1297131,32767,-12332,25904,-15820,32767,-14763
1297143,32767,-11760,24764,-16237,32767,-16765
1297155,32767,-12308,23040,-14973,32767,-18912
1297173,32767,-10756,21748,-9806,32767,-20750
1297185,32767,-10424,20788,-5332,32767,-20843
1297197,31888,-9320,20456,-2097,32767,-21808
1297209,30272,-9780,20636,-1993,32767,-26425
1297221,30604,-9992,22520,-5936,29919,-28966
1297233,29064,-9152,23416,-10845,25045,-32390
1297245,29752,-8508,25644,-13572,21166,-32768
1297257,29188,-8512,28712,-15669,13873,-32768
1297269,28364,-8084,29908,-16009,9631,-32768
1297281,26756,-7136,31572,-15519,3953,-32768
1297299,22216,-4896,32452,-14238,-5582,-32768
1297311,21252,-3980,32767,-12780,-9699,-32768
1297323,18868,-4560,32767,-9680,-12730,-32768
1297335,18748,-3924,32767,-6834,-14621,-32768
1297347,17524,-3404,31044,-4209,-16537,-32596
1297359,17824,-2188,27396,-2984,-21235,-27711
1297371,16936,-1772,24368,-2465,-25996,-25012
1297383,17472,-1384,22996,-2668,-29266,-23301
1297395,16836,-1104,22688,-2365,-32768,-20938
1297407,17764,-2084,23032,-3041,-32768,-18060
1297425,17800,-604,19836,-1981,-32768,-12348
1297437,17712,1084,17468,-1696,-32768,-10767
1297449,16492,2708,17040,-1408,-32768,-11072
1297461,16428,2840,17060,-1291,-32768,-11131
1297473,14492,3000,17488,-260,-32768,-9863
1297485,13092,3052,16272,2012,-32768,-7076
1297497,11568,3312,14436,3586,-32768,-3522
1297509,10420,3648,11292,4168,-32768,296
1297521,10272,4560,8780,4577,-32768,4264
1297533,9524,4188,3944,5482,-32768,6384
1297551,8876,2240,424,5220,-32768,5744
1297563,9668,1288,-684,3901,-32768,2514
1297575,9780,860,-784,2473,-32768,363
1297587,9632,-900,-656,2224,-32768,-991
1297599,9860,-2184,-176,2436,-32768,-516
1297611,8268,-3540,-244,2954,-32768,1011
1297623,7580,-6052,-884,3779,-32768,2689
1297635,7780,-5968,-2644,3600,-32768,531
1297647,7556,-7136,-5196,-345,-32768,-3756
1297659,6988,-7528,-7580,-6026,-32768,-9309
1297677,7892,-11396,-5156,-11006,-32768,-14630
1297689,8956,-13292,-7964,-12178,-32768,-19656
1297701,4220,-12088,-3928,-10503,-32768,-25571
1297713,-944,-12088,-380,-13397,-32768,-32768
1297725,-2568,-11772,2272,-18353,-32768,-32768
1297737,-7308,-10792,9428,-22382,-32768,-32768
1297749,-10380,-8844,13508,-21592,-32768,-32768
1297761,-15052,-3532,17600,-18089,-32768,-32768
1297773,-21108,3612,16992,-15513,-21493,-32768
1297785,-20492,7456,9936,-12044,-5505,-32768
1297803,-16484,9556,52,-4663,8402,-32768
1297815,-12820,10728,-4432,-1050,12508,-27910
1297827,-8440,10108,-7000,1628,10236,-19206
1297839,-2120,7836,-7628,4102,6510,-12618
1297851,2620,4692,-7232,5245,4857,-9079
1297863,4916,2116,-8036,5429,4276,-9634
1297875,6240,-120,-9044,4395,3120,-11812
1297887,6888,-1160,-9788,3644,3484,-12640
1297899,8104,-1800,-11296,3128,4493,-11201
1297911,8176,-1700,-12536,3109,3724,-8219
1297927,7988,-232,-14028,2087,2239,-4635
1297939,7104,1292,-14168,1746,4,-3706
1297951,5612,2700,-13608,1877,-710,-6205
1297963,4544,3416,-12648,932,1241,-12091
1297975,4200,3372,-11912,468,3882,-17376
1297987,3224,3148,-12580,903,5902,-21626
1297999,2188,1756,-13564,-139,7234,-21667
1298011,524,1828,-14524,-1061,5301,-16823
1298023,-680,3360,-13416,-1881,4138,-12292
1298035,-1196,5016,-12000,-2027,3143,-8864
1298053,-724,7040,-9068,-969,4429,-6558
1298065,-220,7540,-8228,-79,5800,-6302
1298077,524,7488,-8376,1032,6992,-7130
1298089,816,6420,-7976,1386,8273,-9022
1298101,1076,5416,-7720,825,9797,-11420
1298113,920,3800,-8160,-35,9057,-11227
1298125,776,3400,-7648,-497,8723,-9458
1298137,672,3700,-6612,-1214,8228,-7795
1298149,136,4828,-5396,-1439,8904,-6898
1298161,680,5172,-3996,-887,9532,-5486
1298179,1240,5560,-1740,913,8277,-1976
1298191,1944,5516,-772,2385,7255,982
1298203,1928,4632,16,4260,7138,1934
1298215,2268,4464,1204,5575,6742,1396
1298227,2564,2816,2780,6147,6445,1953
1298239,3304,1768,4240,6323,7037,2016
1298251,3988,-252,4120,7285,7183,2394
1298263,5568,-656,4808,8071,12161,343
1298275,4996,-1348,3004,10051,14994,-1757
1298287,5436,-2852,2076,10193,17408,-3500
1298305,7612,-4576,-1280,7734,19772,-3065
1298317,6088,-3832,-440,4748,19913,-2046
1298329,6064,-3672,1252,1804,17833,-1459
1298341,6408,-3940,2184,123,15053,-1070
1298353,6572,-4272,4180,-1061,17704,-1097
1298365,8024,-4612,5820,-1037,20866,-1050
1298377,9700,-5636,7616,-1121,23595,311
1298389,11592,-6424,8972,-1225,23669,2481
1298401,13616,-7412,11504,-1431,21332,4591
1298413,15624,-8552,13984,-3594,22943,6720
1298431,19648,-10344,14552,-3297,28254,10918
1298443,21544,-10712,17900,-2010,31117,11995
1298455,24284,-10568,18308,-1939,31327,10252
1298467,25412,-11036,20092,-3410,30527,10390
1298479,25828,-12600,20188,-5602,29904,10768
1298491,26924,-12936,22044,-6292,29689,13231
1298503,27712,-13440,22928,-5650,31249,16343
1298515,28836,-13776,23940,-3514,31879,19789
1298527,30224,-14696,24364,-2043,32767,21562
1298539,31560,-16072,28844,-3515,32767,20257
1298555,32767,-18440,23596,-82,32767,23621
1298567,32767,-17236,27164,-1415,32767,21885
1298579,32767,-15996,26928,-5363,32767,20177
1298591,32767,-15868,28120,-6597,32767,19748
1298603,32767,-16124,28552,-7993,32767,18389
1298615,32767,-16784,29596,-8188,32767,16151
1298627,32767,-15308,29728,-9661,32767,15089
1298639,32767,-16592,28528,-10273,32767,16383
1298651,32767,-15620,29712,-8336,32767,18221
1298663,32767,-15112,30192,-7060,32767,17980
1298681,32767,-17428,30356,-4855,32767,17062
1298693,32767,-18632,27676,-1869,32767,18254
1298705,32767,-17812,24520,332,32767,23021
1298717,32767,-16044,23608,-123,32767,22041
1298729,32767,-15384,21160,-779,32767,19736
1298741,32767,-15036,19032,428,32767,18983
1298753,32767,-14084,16968,1589,32767,18428
1298765,32004,-13268,15396,2474,32767,15276
1298777,30404,-12592,15576,2950,32767,11531
1298789,28512,-13008,16760,4034,32767,7406
1298807,30620,-12356,13312,9475,32767,756
1298819,32767,-12712,13460,11761,32767,-4312
1298831,28508,-14000,11804,11911,30077,-6688
1298843,23700,-14384,12564,6394,26041,-11841
1298855,25380,-15820,9924,619,22593,-13517
1298867,23564,-16600,10900,-4923,16358,-11506
1298879,22236,-15804,14072,-11689,13918,-10229
1298891,18264,-14440,17300,-17495,12733,-13816
1298903,20720,-13632,23388,-20183,13921,-21676
1298915,23608,-13072,24796,-19187,15608,-26757
1298933,25308,-9484,25992,-11607,9510,-32768
1298945,23584,-11036,27332,-12058,5680,-32768
1298957,25440,-12436,27128,-15219,2352,-32768
1298969,24544,-13696,26264,-16184,137,-32768
1298981,23256,-13564,26300,-15874,-7608,-32768
1298993,25300,-12784,27968,-13118,-11270,-32768
1299005,23496,-12028,29180,-11878,-17530,-32768
1299017,22812,-10800,26512,-9931,-22344,-32768
1299029,22020,-11240,24144,-8685,-25248,-32267
1299041,22140,-11316,23316,-9159,-28667,-31514
1299059,21208,-11344,21084,-10227,-31411,-28933
1299071,21056,-10304,20412,-10408,-32768,-26773
1299083,21800,-7996,20156,-9241,-32768,-20871
1299095,20340,-5832,20632,-8414,-32768,-13988
1299107,18980,-3020,19720,-6357,-32768,-9535
1299119,18528,-912,19332,-5372,-32768,-7609
1299131,17956,1136,17968,-4941,-32768,-7096
1299143,17888,1580,16384,-4130,-32768,-6454
1299155,18836,2076,14564,-3623,-32768,-4768
1299167,18564,2724,12856,-3063,-32768,-2652
1299185,19080,3444,11636,-2383,-32768,-362
1299197,17028,3788,12292,-3322,-32768,-226
1299209,15652,3032,11820,-3529,-32768,-2639
1299221,15516,3084,11796,-2760,-32768,-4876
1299233,13776,2752,11416,-1988,-32768,-6815
1299245,11988,1788,10048,-1925,-32768,-10032
1299257,10568,1132,9036,-1449,-32768,-12904
1299269,9412,-48,8928,-202,-32768,-14919
1299281,7544,-736,9692,948,-32768,-15622
1299293,5740,-2104,9008,1680,-32768,-16263
1299311,5592,-3032,6904,1413,-32768,-17209
1299323,4604,-3524,4544,1571,-32768,-18943
1299335,4352,-4736,4204,-2483,-32434,-21409
1299347,4276,-5048,2996,-5502,-32768,-25213
1299359,4504,-6792,-856,-6200,-32768,-28175
1299371,4852,-7676,-1268,-7050,-32768,-29684
1299383,3776,-8352,-2032,-7860,-32768,-29915
1299395,1552,-8316,-1932,-9774,-32768,-32148
1299407,-668,-9144,-2556,-13927,-32768,-32768
1299419,-1708,-10740,-4400,-16091,-32768,-32768
1299437,-6040,-11464,-6064,-19173,-32768,-32768
1299449,-6864,-10336,-5848,-21974,-32768,-32768
1299461,-7244,-9380,-3064,-28280,-32768,-32768
1299473,-5708,-8452,116,-32768,-32768,-32768
1299485,-5512,-7400,1032,-32768,-32768,-32768
1299497,-5148,-856,6840,-32768,-30197,-32768
1299509,-7548,1676,3224,-32768,-21653,-30671
1299521,-6996,7304,4424,-32768,-10087,-28112
1299533,-6624,9496,3808,-32768,269,-25290
1299545,-5284,10300,476,-24172,10095,-20205
1299563,-2132,8628,-5824,-1786,17383,-6435
1299575,-172,7900,-7536,12176,18161,2823
1299587,1900,5348,-9780,20219,17467,9793
1299599,2992,4892,-11632,24443,12675,13623
1299611,3352,3736,-9120,19472,4558,11556
1299623,9500,668,-24772,21251,403,13136
1299635,6136,948,-16636,20606,-1249,10964
1299647,2696,884,-14168,16853,-1031,5298
1299659,-60,704,-14348,12021,1387,-3115
1299671,-920,260,-13704,6764,5604,-10188
1299687,-752,-720,-14772,3097,11111,-15661
1299699,-192,-696,-15092,2247,12615,-14723
1299711,416,-496,-15948,3137,11820,-10730
1299723,1652,-100,-16416,3946,9476,-5348
1299735,2668,688,-17120,5451,5081,-282
1299747,3496,1380,-17144,6162,459,3265
1299759,4264,1728,-16864,5554,-1909,5120
1299771,3984,2472,-16300,4100,-1683,5580
1299783,3648,2544,-15908,3124,-1164,4734
1299795,3508,3040,-15224,1885,-193,3196
1299813,2992,3240,-15028,404,1729,780
1299825,2716,3356,-15296,-49,2697,6
1299837,2412,3456,-15136,-263,3053,76
1299849,2300,3652,-14968,-446,3625,370
1299861,2060,4044,-15012,-16,3667,728
1299873,1996,4132,-15324,934,3187,1352
1299885,1652,4128,-15476,1748,2856,1930
1299897,1704,4036,-15800,2163,2260,2635
1299909,1840,3756,-16068,2443,1105,3384
1299921,1996,3840,-16052,2667,435,4317
1299939,1632,4208,-16364,2289,-399,4947
1299951,1836,4176,-15796,1765,34,4968
1299963,1948,4404,-15416,1391,436,4971
1299975,2220,4560,-15200,1267,693,4866
1299987,2204,4924,-15108,1106,1093,4431
1299999,2372,4904,-15068,1111,847,3819
1300011,2640,4920,-15056,1028,147,3146
1300023,2688,5016,-15136,306,-424,2283
1300035,2556,4944,-15460,-497,-1027,1543
1300047,2408,5252,-15224,-738,-1647,433
1300065,1696,5504,-15124,-1681,-2465,-1066
1300077,1220,5468,-14972,-2488,-2590,-2206
1300089,532,5428,-14572,-2804,-2893,-3284
1300101,-40,5324,-14256,-3035,-2606,-4237
1300113,-424,5152,-14332,-3061,-2023,-4778
1300125,-824,5004,-13928,-2329,-2047,-5329
1300137,-1544,5080,-14268,-2600,-950,-4687
1300149,-1692,4972,-14224,-2353,-695,-4211
1300161,-1820,4984,-13992,-2165,-56,-3539
1300173,-1520,4904,-13956,-1898,352,-2830
1300191,-1156,5096,-14092,-1751,161,-2046
1300203,-892,5268,-13952,-1788,-177,-1753
1300215,-776,5412,-13652,-1800,-57,-1559
1300227,-556,5560,-13844,-1689,-317,-1422
1300239,-300,5552,-13432,-1582,-266,-1408
1300251,-232,5716,-13432,-1343,-174,-1539
1300263,-476,5964,-13228,-984,-201,-2033
1300275,-588,5928,-13412,-1057,-308,-2707
1300287,-600,5768,-13096,-933,-219,-3141
1300299,-792,5412,-13364,-736,17,-3011
1300317,-1100,5500,-13364,-75,-282,-2460
1300329,-1180,5544,-13380,319,2,-2079
1300341,-1188,5368,-13664,819,280,-1629
1300353,-1260,5376,-14020,1190,381,-1054
1300365,-1384,5236,-14336,1557,333,-690
1300377,-1124,5128,-14524,1614,-326,-338
1300389,-872,5100,-14264,1542,-701,-203
1300401,-672,4880,-14184,1336,-347,-499
1300413,-852,4908,-14272,1166,-593,-861
1300425,-868,4716,-14208,971,-315,-1240
1300441,-1092,4488,-14464,953,149,-1294
1300453,-884,4412,-14388,1154,396,-778
1300465,-816,4340,-14652,1448,262,-254
1300477,-584,4284,-14488,1607,-25,16
1300489,-488,3900,-14348,1565,-55,246
1300501,-380,3936,-14528,1479,-93,370
1300513,-180,3952,-14496,1503,-280,339
1300525,-380,3912,-14636,1417,-371,-42
1300537,-388,3908,-14656,1263,-391,-465
1300549,-212,3592,-14368,1031,-392,-583
1300567,-744,3644,-14532,805,-506,-877
1300579,-888,3464,-14428,636,-336,-1165
1300591,-1128,3288,-14656,490,112,-1063
1300603,-940,3004,-14936,630,126,-390
1300615,-908,3120,-14740,639,181,237
1300627,-948,3264,-14840,588,194,345
1300639,-696,3548,-14748,152,41,-88
1300651,-340,3584,-14588,-206,152,-468
1300663,-604,3860,-14744,-469,-49,-906
1300675,-676,3808,-14784,-739,-387,-1267
1300693,-1004,3792,-14620,-794,-365,-1221
1300705,-1020,3736,-14348,-748,-401,-1164
1300717,-1168,3728,-14236,-832,-65,-1345
1300729,-1448,3860,-14148,-983,196,-1664
1300741,-1328,3840,-14092,-1164,370,-1715
1300753,-1436,3820,-14200,-1171,255,-1551
1300765,-1424,4092,-14104,-1129,287,-1506
1300777,-1264,4108,-13948,-1167,318,-1582
1300789,-1148,4252,-14084,-1123,324,-1630
1300801,-1228,4240,-13984,-1082,356,-1638
1300819,-1304,4324,-14068,-957,83,-1931
1300831,-1412,4360,-14052,-952,203,-2085
1300843,-1516,4484,-14044,-1003,277,-2220
1300855,-1816,4404,-14176,-932,345,-2347
1300867,-1828,4312,-14168,-825,360,-2339
1300879,-1692,4076,-14148,-869,297,-2114
1300891,-1708,4016,-14152,-908,323,-2002
1300903,-1676,4008,-14208,-1185,550,-1981
1300915,-1548,4096,-14160,-1287,793,-1934
1300927,-1340,4136,-14240,-1232,792,-1818
1300945,-1140,4524,-13940,-1492,618,-2025
1300957,-1020,4720,-13772,-1676,715,-2416
1300969,-1088,4844,-13728,-1699,844,-2739
1300981,-1084,4936,-13640,-1527,870,-2778
1300993,-1088,4828,-13744,-1154,743,-2626
1301005,-1132,4652,-14028,-885,516,-2218
1301017,-1388,4764,-14072,-511,613,-2098
1301029,-1576,4656,-13864,-456,459,-2073
1301041,-1520,4312,-14000,-493,670,-1853
1301053,-1480,4232,-14092,-331,632,-1516
1301069,-1632,4044,-14444,-163,753,-1057
1301081,-1452,3880,-14492,-146,847,-680
1301093,-1152,4020,-14456,-39,879,-300
1301105,-1052,4104,-14568,-75,824,-167
1301117,-980,4148,-14564,-158,667,-378
1301129,-844,4184,-14368,-248,538,-747
1301141,-828,4256,-14276,-471,468,-1126
1301153,-1048,4192,-14472,-662,584,-1494
1301165,-1088,4052,-14404,-797,695,-1617
1301177,-1272,3908,-14156,-932,898,-1346
1301195,-1404,4116,-14564,-782,782,-875
1301207,-1188,4184,-14496,-641,789,-531
1301219,-1044,4160,-14372,-558,673,-154
1301231,-948,4400,-14316,-527,657,-64
1301243,-924,4500,-14324,-571,660,-170
1301255,-776,4364,-14244,-516,560,-353
1301267,-756,4416,-14052,-596,526,-408
1301279,-740,4516,-14072,-505,420,-410
1301291,-992,4632,-14148,-361,352,-473
1301303,-1052,4500,-14212,-331,368,-423
1301321,-1284,4452,-14124,-241,209,-495
1301333,-1196,4320,-14132,-245,223,-431
1301345,-1304,4144,-14152,-193,180,-187
1301357,-1388,4212,-14136,-122,274,-1
1301369,-1256,4204,-14408,-167,322,48
1301381,-1116,4184,-14212,-393,382,47
1301393,-1244,4380,-14248,-450,559,5
1301405,-1052,4268,-14120,-417,594,23
1301417,-848,4416,-14176,-298,538,172
1301429,-588,4380,-14412,-152,440,433
1301447,-496,4416,-14548,54,-40,793
1301459,-464,4444,-14540,84,-229,872
1301471,-424,4464,-14488,182,-381,681
1301483,-476,4272,-14512,-108,-223,358
1301495,-660,4132,-14632,-444,-45,-100
1301507,-784,3996,-14584,-740,155,-477
1301519,-732,3996,-14608,-851,234,-464
1301531,-976,4092,-14572,-921,204,-379
1301543,-1116,4128,-14368,-1032,166,-301
1301555,-768,4168,-14148,-1081,153,-214
1301573,-956,4412,-13920,-1030,62,-239
1301585,-988,4624,-13916,-1107,190,-468
1301597,-1024,4580,-13852,-1094,147,-598
1301609,-1012,4652,-13780,-931,89,-451
1301621,-1140,4708,-13712,-634,-114,-163
1301633,-1120,4760,-13712,-377,-105,131
1301645,-1184,4716,-13736,-138,-114,76
1301657,-1108,4592,-13884,-171,-16,49
1301669,-1208,4656,-13996,-71,-143,36
1301681,-1280,4476,-13928,-104,-225,103
1301697,-1420,4512,-14008,-221,76,177
1301709,-1488,4452,-14012,-222,134,184
1301721,-1324,4404,-14020,-263,225,144
1301733,-1456,4472,-13932,-308,189,-3
1301745,-1348,4360,-14100,-421,249,20
1301757,-1432,4388,-14484,-461,243,206
1301769,-1656,4532,-14348,-459,240,253
1301781,-1564,4396,-14484,-535,303,309
1301793,-1576,4488,-14508,-540,377,438
1301805,-1620,4452,-14400,-602,392,562
1301823,-1580,4492,-14328,-434,629,867
1301835,-1296,4416,-14444,-333,677,1104
1301847,-948,4452,-14464,-396,649,1245
1301859,-796,4652,-14348,-592,629,1002
1301871,-876,4744,-14208,-781,664,623
1301883,-816,4664,-14220,-955,652,299
