Time,AccelX,AccelY,AccelZ,GyroX,GyroY,GyroZ
2526326,-5108,1572,17108,-267,284,92
2526338,-5168,1608,17216,-245,266,102
2526350,-5016,1492,17184,-260,254,107
2526378,-5052,1588,17240,-259,260,107
2526390,-5124,1560,17256,-254,249,128
2526402,-5040,1396,17176,-243,259,108
2526414,-5132,1456,17252,-250,248,107
2526426,-5116,1576,17156,-258,262,86
2526438,-5040,1508,17148,-268,251,112
2526450,-5288,1504,17164,-253,232,95
2526462,-5172,1668,17076,-274,235,86
2526474,-5120,1536,17180,-252,271,102
2526486,-5156,1532,17136,-255,253,150
2526506,-5112,1532,17116,-246,250,122
2526518,-5084,1500,17184,-291,255,108
2526530,-5072,1428,17140,-271,254,100
2526542,-5164,1532,17232,-286,296,91
2526554,-5044,1468,17236,-282,252,84
2526566,-5112,1584,17148,-261,265,122
2526578,-5080,1464,17088,-277,288,70
2526590,-5184,1500,17156,-264,269,108
2526602,-5108,1532,17128,-257,285,115
2526614,-5036,1468,17040,-246,249,87
2526630,-5064,1424,17172,-276,240,132
2526642,-5020,1464,17224,-267,248,116
2526654,-5180,1452,17104,-258,271,113
2526666,-5072,1528,17204,-250,265,118
2526678,-5108,1508,17064,-265,243,116
2526690,-5084,1496,17212,-263,252,108
2526702,-5064,1512,17052,-280,258,88
2526714,-5136,1676,17104,-253,224,91
2526726,-5132,1508,17160,-246,282,110
2526738,-5124,1424,17096,-233,240,95
2526756,-5072,1580,17192,-251,260,72
2526768,-5092,1408,17136,-277,230,90
2526780,-5172,1492,17248,-259,259,100
2526792,-5116,1416,17060,-253,242,107
2526804,-5040,1444,17232,-257,238,110
2526816,-5092,1536,17176,-296,260,114
2526828,-5156,1552,17080,-261,235,76
2526840,-5176,1492,17284,-263,253,69
2526852,-5028,1472,17080,-262,247,104
2526864,-5120,1612,17248,-243,241,114
2526882,-5072,1552,17192,-267,265,117
2526894,-5120,1488,17148,-251,307,89
2526906,-4984,1504,17128,-278,281,110
2526918,-5092,1496,17400,-256,277,79
2526930,-5040,1508,17224,-270,239,101
2526942,-5020,1444,17260,-257,276,94
2526954,-5028,1552,17260,-243,266,137
2526966,-5080,1476,17160,-243,236,118
2526978,-5104,1576,17224,-273,242,110
2526990,-5144,1472,17212,-267,243,101
2527008,-5072,1560,17128,-248,261,110
2527020,-5060,1528,17104,-249,276,114
2527032,-5104,1560,17044,-255,273,92
2527044,-5124,1492,17148,-251,250,99
2527056,-5132,1624,17252,-258,270,118
2527068,-5092,1512,17196,-255,225,111
2527080,-5076,1576,17116,-256,282,72
2527092,-5072,1524,17104,-267,253,115
2527104,-5224,1444,17056,-269,245,97
2527116,-5124,1520,17044,-230,252,135
2527132,-5012,1464,17252,-280,256,114
2527144,-5036,1532,17264,-277,244,111
2527156,-5068,1436,17176,-257,255,97
2527168,-5032,1516,17104,-258,241,83
2527180,-5156,1540,17212,-256,280,102
2527192,-5160,1544,16980,-264,253,93
2527204,-5024,1540,17144,-262,253,80
2527216,-5104,1620,17392,-260,208,117
2527228,-5060,1504,17108,-262,241,108
2527240,-5092,1472,17160,-290,249,114
2527258,-5008,1472,17192,-260,263,94
2527270,-5192,1500,17128,-227,263,117
2527282,-5080,1624,17032,-239,256,132
2527294,-5100,1560,16988,-236,224,130
2527306,-5116,1416,17288,-255,209,90
2527318,-5060,1544,17204,-262,221,126
2527330,-5084,1484,17168,-263,241,108
2527342,-5100,1572,17036,-269,286,115
2527354,-5108,1480,17120,-266,246,88
2527366,-5048,1500,17080,-263,265,114
2527384,-4980,1492,17148,-258,271,98
2527396,-5144,1444,17020,-239,274,116
2527408,-5084,1472,17256,-246,275,96
2527420,-4984,1464,17260,-295,257,120
2527432,-5128,1508,17212,-259,273,127
2527444,-5100,1600,17128,-267,255,102
2527455,-5092,1532,17232,-271,242,111
2527467,-5104,1504,16980,-251,234,118
2527479,-4968,1480,17176,-238,236,80
2527491,-5052,1508,17148,-292,244,129
2527509,-5068,1452,17188,-272,231,96
2527521,-4964,1488,17060,-262,245,100
2527533,-5020,1428,17140,-260,241,75
2527545,-5112,1512,17136,-257,250,93
2527557,-5048,1492,17164,-251,274,118
2527569,-5148,1460,17220,-254,273,92
2527581,-5224,1484,17320,-252,245,78
2527593,-5136,1588,17208,-253,240,99
2527605,-5160,1460,17208,-261,254,101
2527617,-5120,1508,17172,-270,240,105
2527633,-5100,1564,17176,-260,287,87
2527645,-5052,1480,17296,-249,292,109
2527657,-5208,1524,17136,-258,271,104
2527669,-5112,1460,17136,-258,242,121
2527681,-5052,1492,17148,-239,234,102
2527693,-5064,1540,17184,-254,246,90
2527705,-5020,1432,17024,-271,278,114
2527717,-5140,1452,17088,-275,290,110
2527729,-5016,1488,17120,-289,257,130
2527741,-5124,1452,17184,-243,257,92
2527759,-5160,1512,17068,-275,248,128
2527771,-5068,1488,17208,-254,272,111
2527783,-5128,1588,17104,-271,247,103
2527795,-5084,1560,17280,-268,245,75
2527807,-4980,1572,17124,-254,259,99
2527109
2527657,-5208,1524,17136,-258,271,104
2527669,-5112,1460,17136,-258,242,121
2527681,-5052,1492,17148,-239,234,102
2527693,-5064,1540,17184,-254,246,90
2527705,-5020,1432,17024,-271,278,114
2527717,-5140,1452,17088,-275,290,110
2527729,-5016,1488,17120,-289,257,130
2527741,-5124,1452,17184,-243,257,92
2527759,-5160,1512,17068,-275,248,128
2527771,-5068,1488,17208,-254,272,111
2527783,-5128,1588,17104,-271,247,103
2527795,-5084,1560,17280,-268,245,75
2527807,-4980,1572,17124,-254,259,99
2527096,1544,17112,-272,253,98
2527993,-4976,1480,17100,-255,276,101
2528011,-5112,1500,17140,-255,236,115
2528023,-5056,1532,17160,-246,230,111
2528035,-5172,1508,17248,-253,256,117
2528047,-5036,1444,17104,-253,218,96
2528059,-4952,1440,17156,-266,237,104
2528071,-5076,1520,17232,-243,276,77
2528083,-5084,1540,17164,-257,304,109
2528095,-5128,1472,17148,-258,277,113
2528107,-5088,1512,17224,-253,254,106
2528119,-5140,1640,17260,-256,294,92
2528135,-5236,1568,17136,-228,270,117
2528147,-5136,1552,17120,-272,248,97
2528159,-5216,1492,17128,-246,264,106
2528171,-5136,1520,17292,-241,226,107
2528183,-5044,1440,17152,-255,247,119
2528195,-5084,1492,17200,-285,253,104
2528207,-5120,1516,17076,-259,251,102
2528219,-5072,1512,17072,-234,262,107
2528231,-5076,1536,17268,-245,249,95
2528243,-4944,1544,17172,-271,270,104
2528261,-5080,1604,17128,-256,244,70
2528273,-5004,1484,17212,-266,234,121
2528285,-5048,1448,17164,-236,271,104
2528297,-5168,1516,17040,-261,260,97
2528309,-5156,1400,17180,-263,245,79
2528321,-5008,1508,17192,-291,244,106
2528333,-5140,1512,17112,-265,283,115
2528345,-5080,1520,17160,-288,258,99
2528357,-5176,1564,17156,-275,238,90
2528369,-5076,1560,17152,-268,262,124
2528387,-5092,1564,17216,-255,260,97
2528399,-5160,1496,17216,-268,258,104
2528411,-5184,1520,17184,-280,273,117
2528423,-5060,1500,17252,-265,262,111
2528435,-4968,1468,17172,-246,285,91
2528447,-4972,1484,17152,-260,266,100
2528459,-5076,1552,17120,-258,248,119
2528471,-5076,1524,17196,-258,282,92
2528483,-5044,1552,17256,-276,254,93
2528495,-5096,1452,17256,-265,265,86
2528513,-5056,1576,17268,-258,276,123
2528525,-5108,1548,17208,-290,267,123
2528537,-5120,1548,17188,-245,244,98
2528549,-5128,1596,17088,-242,258,94
2528561,-5132,1600,17156,-282,254,110
2528573,-5096,1500,17440,-269,261,85
2528585,-5072,1488,17072,-267,264,123
2528597,-5172,1620,17252,-258,259,91
2528609,-5132,1468,17272,-277,262,124
2528621,-5020,1480,17232,-252,256,120
2528637,-5080,1500,17124,-258,272,120
2528649,-5084,1576,17140,-284,248,94
2528661,-4976,1544,17160,-256,275,107
2528673,-5028,1576,17260,-251,255,104
2528685,-5160,1496,17184,-241,262,125
2528697,-5080,1504,17184,-241,233,118
2528709,-5148,1580,17116,-272,240,109
2528721,-5200,1452,17160,-273,269,83
2528733,-5084,1548,17276,-245,257,134
2528745,-5040,1492,17160,-266,229,86
2528763,-5116,1616,17168,-257,253,90
2528775,-5140,1480,17228,-269,268,109
2528787,-5128,1592,17236,-275,261,110
2528799,-5144,1544,17340,-255,239,108
2528811,-5084,1552,17104,-267,226,87
2528823,-5072,1508,17216,-249,264,94
2528835,-5028,1440,17316,-258,289,112
2528847,-5104,1432,17172,-296,265,108
2528859,-5160,1408,17180,-261,220,95
2528871,-5140,1564,17176,-256,265,131
2528889,-5168,1468,17208,-265,235,92
2528901,-5096,1484,17172,-271,271,92
2528913,-4984,1432,17136,-236,243,102
2528925,-5016,1544,17112,-260,253,124
2528937,-5116,1560,17208,-275,247,96
2528949,-5092,1452,17064,-255,256,114
2528961,-5156,1504,17184,-253,240,116
2528973,-5112,1472,17132,-277,290,127
2528985,-5104,1540,17328,-256,269,106
2528997,-5112,1520,17192,-263,261,113
2529015,-5100,1512,17072,-243,255,109
2529027,-5124,1548,17200,-251,242,106
2529039,-5032,1544,17108,-264,273,97
2529051,-4984,1496,17192,-258,254,78
2529063,-5128,1480,17292,-263,250,113
2529075,-4932,1468,17224,-253,281,93
2529087,-5064,1504,17168,-262,265,86
2529099,-5084,1464,17140,-291,268,109
2529111,-5188,1544,17220,-263,274,107
2529123,-5036,1552,17208,-309,251,87
2529139,-5180,1428,17184,-238,243,109
2529151,-5080,1464,17312,-267,262,87
2529163,-5120,1500,17180,-271,296,78
2529175,-5116,1424,17080,-277,286,99
2529187,-5052,1576,17128,-275,245,96
2529199,-5240,1556,17168,-273,264,110
2529211,-5088,1468,17140,-277,217,106
2529223,-5072,1496,17292,-268,245,103
2529235,-5112,1548,17204,-267,250,145
2529247,-5140,1504,17080,-240,256,105
2529265,-5092,1552,17168,-247,260,103
2529277,-5092,1468,17124,-272,244,113
2529289,-5132,1532,17212,-256,255,114
2529301,-5028,1468,17272,-261,258,89
2529313,-5100,1464,17192,-241,253,110
2529325,-5176,1496,17240,-271,253,100
2529337,-5156,1472,17268,-231,243,109
2529349,-5136,1488,17284,-244,263,101
2529361,-5000,1472,17216,-246,267,89
2529373,-5148,1576,17160,-264,273,112
2529391,-5160,1540,17116,-267,260,99
2529403,-5136,1508,17260,-266,245,93
2529415,-5196,1616,17104,-283,223,99
2529427,-5052,1468,17348,-260,250,114
2529439,-5160,1520,17160,-281,251,107
2529451,-5068,1564,17268,-261,275,108
2529463,-5144,1460,17252,-282,271,89
2529475,-5128,1580,17124,-275,246,118
2529487,-5076,1472,17208,-249,250,87
2529499,-5176,1468,17204,-264,270,85
2529517,-5076,1484,17156,-264,263,114
2529529,-5024,1500,17104,-249,253,102
2529541,-5120,1472,17288,-250,251,100
2529553,-5192,1548,17184,-253,260,111
2529565,-5100,1604,17172,-250,288,97
2529577,-5292,1456,17192,-280,237,92
2529589,-5104,1560,17116,-224,267,104
2529601,-5140,1476,17000,-275,237,109
2529613,-5048,1568,17124,-250,254,107
2529625,-5208,1536,17108,-262,269,110
2529641,-5000,1504,17256,-261,281,121
2529653,-5036,1500,17192,-247,255,110
2529665,-5012,1472,17136,-242,308,84
2529677,-5208,1540,17164,-266,267,93
2529689,-5168,1464,17076,-255,264,92
2529701,-5212,1524,17200,-255,250,100
2529713,-5084,1548,17340,-240,240,95
2529725,-5012,1540,17148,-261,249,91
2529737,-5160,1468,17200,-256,262,115
2529749,-5036,1484,17148,-268,234,112
2529767,-5032,1616,17164,-256,257,71
2529779,-5080,1468,17196,-259,259,87
2529791,-5028,1508,17088,-277,264,112
2529803,-5108,1488,17244,-232,236,94
2529815,-5160,1452,16976,-267,254,91
2529827,-5096,1520,17148,-277,248,107
2529839,-5092,1532,17164,-280,222,118
2529851,-5088,1596,17220,-258,256,82
2529863,-5080,1532,17216,-270,247,106
2529875,-4980,1500,17252,-261,262,108
2529893,-5156,1444,17160,-250,239,127
2529905,-5088,1508,17224,-231,250,103
2529917,-5068,1536,17288,-243,255,127
2529929,-5092,1464,17140,-263,282,116
2529941,-5072,1488,17156,-298,267,91
2529953,-5040,1480,17100,-275,239,90
2529965,-4984,1528,17272,-265,265,119
2529977,-5060,1456,17176,-265,243,106
2529989,-5060,1512,17204,-270,248,100
2530001,-5104,1436,17176,-248,269,104
2530019,-5044,1580,17280,-261,266,101
2530031,-5108,1444,17224,-255,246,88
2530043,-5060,1496,17216,-258,256,107
2530055,-5084,1464,17296,-234,252,109
2530067,-5064,1524,17056,-271,257,115
2530079,-5008,1572,17092,-279,254,96
2530091,-5108,1480,17332,-267,287,111
2530103,-5024,1572,17176,-245,267,99
2530115,-5148,1520,17156,-260,258,118
2530127,-5072,1372,17056,-276,274,132
2530143,-5128,1548,17216,-269,282,90
2530155,-5060,1540,17244,-275,252,117
2530167,-5148,1468,17204,-264,275,114
2530179,-5112,1540,17136,-253,273,89
2530191,-5056,1588,17192,-245,247,111
2530203,-5064,1464,16964,-255,232,112
2530215,-5032,1428,17088,-263,239,126
2530227,-5104,1464,17264,-278,278,104
2530239,-5028,1548,17152,-274,278,107
2530251,-5052,1524,17304,-251,265,122
2530269,-5084,1456,17096,-273,251,105
2530281,-5112,1536,17024,-243,255,89
2530293,-5084,1552,17176,-278,255,122
2530305,-5096,1568,17136,-260,257,80
2530317,-5136,1512,17300,-262,278,121
2530329,-5192,1520,17304,-267,252,121
2530341,-5028,1588,17100,-280,264,111
2530353,-5084,1536,17200,-273,282,116
2530365,-5148,1564,17188,-291,272,94
2530377,-5044,1516,17272,-281,291,115
2530395,-5144,1496,17100,-250,229,100
2530407,-5016,1468,17268,-267,253,142
2530419,-5048,1552,17208,-262,279,107
2530431,-5092,1520,17172,-294,263,96
2530443,-5108,1592,17160,-279,272,95
2530455,-5140,1472,17080,-252,242,100
2530467,-5024,1516,17192,-266,246,99
2530479,-5056,1464,17108,-281,257,97
2530491,-5168,1516,17176,-262,238,92
2530503,-5168,1532,17100,-261,263,101
2530521,-5152,1548,17108,-262,237,125
2530533,-5068,1516,17152,-263,282,95
2530545,-5220,1496,17152,-264,292,113
2530557,-5168,1500,17168,-255,274,111
2530569,-5212,1496,17128,-245,235,109
2530581,-5148,1468,17244,-237,238,111
2530593,-5068,1564,17356,-260,259,74
2530605,-5100,1452,17292,-240,251,95
2530617,-5040,1508,17104,-278,256,97
2530629,-5140,1564,17072,-273,255,109
2530645,-5044,1488,17088,-259,268,113
2530657,-4980,1476,17196,-254,255,94
2530669,-5064,1588,17180,-256,275,100
2530681,-5092,1484,17192,-278,268,90
2530693,-5092,1488,17156,-273,258,109
2530705,-5140,1540,17088,-279,259,119
2530717,-5100,1520,17212,-287,257,90
2530729,-5076,1556,17160,-259,268,96
2530741,-5136,1444,17264,-256,276,125
2530753,-4984,1576,17252,-243,280,122
2530771,-5096,1532,17228,-252,280,99
2530783,-5080,1508,17280,-268,279,144
2530795,-5012,1524,17096,-258,241,116
2530807,-5212,1436,17176,-260,292,118
2530819,-5184,1456,17320,-247,247,85
2530831,-5124,1480,17196,-296,252,81
2530843,-5152,1520,17124,-263,248,134
2530855,-5056,1500,17144,-266,259,110
2530867,-5108,1520,17240,-268,242,98
2530879,-5036,1440,17104,-283,258,90
2530897,-5024,1448,17116,-271,250,104
2530909,-5120,1548,17096,-269,284,101
2530921,-5072,1596,17008,-268,269,112
2530933,-5140,1532,17240,-251,263,128
2530945,-5060,1608,17128,-241,262,100
2530957,-5104,1540,17184,-253,230,93
2530969,-5144,1580,17096,-235,261,122
2530981,-5076,1516,17068,-245,240,119
2530993,-5032,1508,17112,-251,264,114
2531005,-5008,1496,17228,-262,237,86
2531023,-5088,1456,17180,-259,246,118
2531035,-5104,1472,17384,-244,252,120
2531047,-5012,1564,17196,-257,257,133
2531059,-4976,1528,17144,-256,259,74
2531071,-5140,1500,17144,-252,288,121
2531083,-5072,1432,17200,-242,241,122
2531095,-5148,1540,17200,-247,268,74
2531107,-5084,1480,17244,-251,255,85
2531119,-5124,1504,17188,-286,252,79
2531131,-5112,1468,17276,-262,257,111
2531147,-5092,1444,17200,-260,242,99
2531159,-5060,1568,17196,-269,253,106
2531171,-5240,1460,17212,-259,263,103
2531183,-5056,1444,17100,-255,271,85
2531195,-5068,1452,17184,-248,299,113
2531207,-5020,1500,17228,-284,267,137
2531219,-5024,1444,17144,-262,260,103
2531231,-5136,1456,17056,-254,242,93
2531243,-5116,1480,17176,-254,263,96
2531255,-5092,1488,17192,-264,256,99
2531273,-4996,1552,17252,-250,258,101
2531285,-5164,1532,17244,-285,250,99
2531297,-5036,1528,17176,-263,253,105
2531309,-5096,1448,17296,-259,260,119
2531321,-5192,1564,17300,-286,290,101
2531333,-5112,1444,17132,-255,231,113
2531345,-5080,1568,17244,-287,248,94
2531357,-5080,1540,17304,-261,256,81
2531369,-5228,1508,17164,-259,245,101
2531381,-5080,1480,17128,-254,283,116
2531399,-5080,1564,17208,-260,238,121
2531411,-5200,1492,17084,-250,257,99
2531423,-5156,1572,17228,-270,224,110
2531435,-5064,1388,17164,-255,254,134
2531447,-5160,1504,17048,-252,264,112
2531459,-4992,1444,17164,-251,259,75
2531471,-5068,1456,17168,-246,226,90
2531483,-4996,1528,17132,-250,252,115
2531495,-5092,1480,17112,-272,275,136
2531507,-5112,1584,17276,-277,257,114
2531525,-5128,1612,17216,-277,228,99
2531537,-5044,1456,17228,-279,262,104
2531549,-5148,1556,17080,-291,273,115
2531561,-5068,1504,17176,-241,268,98
2531573,-5068,1544,17328,-257,265,100
2531585,-5060,1480,17172,-252,250,92
2531597,-5180,1496,17164,-261,258,92
2531609,-5000,1536,17064,-239,287,75
2531621,-5036,1568,17204,-264,229,126
2531633,-5040,1576,17088,-266,232,117
2531651,-5136,1524,17008,-257,246,107
2531663,-5084,1440,17204,-230,262,81
2531675,-5040,1536,17236,-278,276,118
2531687,-5076,1444,17296,-280,244,102
2531699,-5116,1508,17052,-269,271,118
2531711,-5068,1544,17104,-248,243,83
2531723,-5004,1548,17156,-271,241,112
2531735,-5148,1536,17128,-263,244,98
2531747,-5056,1516,17152,-268,261,83
2531759,-5016,1560,17224,-269,226,135
2531775,-5148,1548,17172,-244,256,97
2531787,-5056,1540,17184,-255,249,79
2531799,-5128,1624,17148,-259,266,97
2531811,-5124,1412,17280,-266,258,85
2531823,-5120,1512,17180,-282,239,89
2531835,-5028,1440,17184,-250,250,94
2531847,-5076,1488,17396,-242,234,109
2531859,-4924,1400,17136,-252,230,96
2531871,-4980,1500,17160,-254,254,97
2531883,-5060,1472,17208,-284,248,102
2531901,-5116,1516,17180,-278,260,120
2531913,-5040,1544,17204,-247,240,97
2531925,-5084,1436,17176,-265,253,80
2531937,-5044,1472,17164,-280,257,111
2531949,-5072,1540,17136,-281,282,116
2531961,-5060,1564,17172,-252,239,105
2531973,-5056,1560,17160,-261,257,115
2531985,-5104,1560,17096,-259,255,102
2531997,-5080,1472,17088,-258,260,118
2532009,-5068,1516,17144,-257,265,108
2532027,-5012,1440,17136,-274,266,89
2532039,-5108,1512,17276,-250,277,102
2532051,-5092,1496,17240,-263,291,61
2532063,-5048,1480,17136,-268,255,97
2532075,-5052,1552,17100,-254,242,101
2532087,-5072,1428,17116,-239,239,93
2532099,-5164,1500,17336,-272,255,104
2532111,-5084,1548,17264,-283,234,101
2532123,-5196,1508,17168,-237,233,105
2532135,-5076,1524,17064,-247,270,108
2532153,-5036,1412,17112,-255,262,81
2532165,-5028,1496,17288,-274,266,85
2532177,-5020,1548,17112,-254,283,116
2532189,-5144,1516,17164,-244,266,87
2532201,-5048,1512,17104,-264,242,112
2532213,-5112,1468,17028,-262,234,103
2532225,-5228,1480,17116,-260,235,99
2532237,-5044,1464,17040,-246,253,93
2532249,-5060,1440,17136,-244,237,99
2532261,-5092,1464,17200,-259,252,125
2532277,-5124,1524,17172,-247,255,131
2532289,-5092,1456,17160,-245,261,136
2532301,-4144,2216,16852,-290,268,187
2532313,-5328,1360,17248,-242,208,88
2532325,-5032,1444,17224,-272,294,82
2532337,-5084,1452,16972,-230,233,93
2532349,-5060,1568,17140,-274,253,117
2532361,-5048,1468,17092,-257,230,84
2532373,-5064,1596,17244,-289,244,112
2532385,-5072,1496,17160,-275,247,96
2532403,-5076,1444,17168,-243,243,119
2532415,-5120,1488,17208,-244,245,111
2532427,-5040,1592,17228,-263,264,110
2532439,-5140,1524,17092,-255,288,95
2532451,-5088,1564,17240,-278,260,81
2532463,-5012,1572,17108,-250,275,100
2532475,-5092,1520,17244,-263,281,111
2532487,-5104,1612,17140,-283,288,99
2532499,-5016,1528,17160,-263,233,115
2532511,-5176,1440,17144,-279,247,102
2532529,-5068,1480,17368,-299,348,113
2532541,-5224,1372,17152,-263,215,93
2532553,-5052,1500,17064,-260,139,131
2532565,-4816,1500,17384,-285,156,87
2532577,-4956,1492,17440,-256,301,107
2532589,-5088,1416,17124,-265,338,92
2532601,-5068,1448,17136,-302,255,95
2532613,-5016,1504,17208,-251,234,103
2532625,-5052,1548,17180,-248,256,92
2532637,-5552,1156,16444,215,-1477,799
2532654,-5552,1156,16444,215,-1477,799
2532664,-5552,1156,16444,215,-1477,799
2532674,-5552,1156,16444,215,-1477,799
2532684,-5552,1156,16444,215,-1477,799
2532694,-5552,1156,16444,215,-1477,799
2532705,-5584,1000,16032,179,3,-753
2532717,-5156,1364,17380,6,-177,-765
2532729,-4720,1232,17376,-225,213,-547
2532740,-4712,1496,17280,-313,444,-413
2532752,-5060,1768,17124,-465,686,-231
2532768,-5068,1208,17128,-406,-46,149
2532780,-5096,1424,16776,-51,-270,-48
2532791,-5096,1424,16776,-51,-270,-48
2532801,-5096,1424,16776,-51,-270,-48
2532811,-5096,1424,16776,-51,-270,-48
2532822,-4720,1340,17228,-458,-1367,1527
2532834,-8504,2640,17712,23,-3723,6708
2532846,-7236,3180,18580,-301,-9497,15701
2532857,-7236,3180,18580,-301,-9497,15701
2532868,-4024,-664,17356,-296,-19755,27318
2532886,-2196,4448,17672,879,-459,-1653
2532898,-4944,1064,17384,956,-126,-2991
2532910,-4220,1368,16876,1145,-66,-3807
2532922,-3648,1124,17704,1182,-668,-3992
2532934,-3012,1848,18528,1401,-426,-4463
2532946,-4048,2588,17792,1448,-763,-5503
2532958,-4540,1136,17712,1370,-2202,-6213
2532970,-5172,3000,19792,1742,-2661,-7320
2532982,-5620,176,18352,2484,-770,-8617
2532994,-2424,1976,16264,2885,1856,-10003
2533011,-2424,1976,16264,2885,1856,-10003
2533021,-2424,1976,16264,2885,1856,-10003
2533031,-2424,1976,16264,2885,1856,-10003
2533042,-48,3248,21016,1551,10664,-13733
2533054,-3656,2216,17772,-143,1141,-569
2533066,-3828,2240,17484,-186,919,-459
2533078,-3868,2236,17496,-182,853,-411
2533090,-3872,2164,17488,-226,658,-343
2533102,-3864,2276,17608,-206,404,-318
2533114,-3828,2200,17496,-239,387,-248
2533132,-3824,2120,17528,-229,534,-182
2533144,-3932,2084,17484,-260,550,-125
2533156,-3904,2168,17504,-254,545,-150
2533168,-4112,2152,17344,-249,550,-355
2533180,-3792,2224,17432,-233,438,-199
2533192,-3856,2144,17676,-217,390,-201
2533204,-3836,2128,17552,-251,410,-125
2533216,-3872,2240,17708,-273,474,-82
2533228,-3784,2232,17440,-238,506,-94
2533240,-3964,2148,17676,-239,404,-77
2533256,-3932,2148,17416,-270,379,-29
2533268,-3904,2132,17580,-220,340,3
2533280,-3852,2104,17520,-255,296,2
2533292,-3900,2104,17484,-266,312,17
2533304,-3920,2096,17488,-268,370,52
2533316,-4004,2232,17320,-293,317,118
2533328,-3852,2060,17420,-315,316,153
2533340,-3892,2120,17576,-309,308,227
2533352,-3916,1980,17484,-341,241,374
2533364,-3940,2168,17516,-331,202,360
2533391,-952,-1128,15056,-1639,-9996,21913
2533403,-2532,2072,17600,-973,-6532,15240
2533415,76,2284,14768,-1177,-2210,10900
2533427,2252,1320,16152,-752,78,10857
2533439,364,2184,18120,-3182,2190,13702
2533451,-48,1080,17176,-4563,2312,15907
2533463,-2788,816,17340,-2916,3718,12212
2533475,-6296,1988,18412,-3586,3696,9470
2533487,-5260,4196,15732,-3291,1861,7522
2533499,-5520,3380,16220,-2371,3368,4022
2533517,-4724,3236,18148,-865,212,2442
2533529,-6364,3524,16460,-925,-168,849
2533541,-2356,640,17932,-482,5,709
2533552,-2356,640,17932,-482,5,709
2533563,-5064,976,14108,909,-1454,-1172
2533575,-3500,2328,17744,-86,3013,-4374
2533587,-3596,2472,17860,-136,2456,-3254
2533599,-3688,2388,17560,-180,1720,-2115
2533611,-3880,2412,17616,-154,1619,-2074
2533623,-3728,2332,17516,-186,1078,-1171
2533641,-3796,2336,17552,-228,777,-649
2533653,-3784,2160,17500,-248,615,-438
2533665,-3852,2104,17548,-254,480,-260
2533677,-3920,2260,17612,-240,436,-194
2533689,-3868,2236,17500,-243,398,-120
2533701,-3896,2220,17416,-276,402,-72
2533713,-3808,2288,17524,-266,359,-23
2533725,-3888,2204,17468,-262,342,-26
2533737,-3940,2228,17444,-239,285,-2
2533749,-3836,2156,17428,-253,315,-3
2533767,-3992,2160,17388,-256,338,-8
2533779,-3856,2236,17480,-274,307,43
2533791,-3908,2252,17480,-248,308,47
2533803,-3852,2196,17524,-245,296,53
2533815,-3932,2216,17608,-275,280,33
2533827,-3812,2132,17428,-247,285,56
2533839,-3836,2272,17556,-257,297,54
2533851,-3740,2196,17336,-242,408,82
2533863,-3964,2104,17304,-257,310,45
2533875,-3792,2336,17432,-256,290,55
2533891,-3856,2100,17516,-245,261,74
2533903,-3924,2140,17476,-266,291,56
2533915,-3804,2184,17664,-243,272,83
2533927,-3932,2180,17548,-242,288,79
2533939,-3964,2276,17472,-245,265,55
2533951,-3872,2256,17296,-254,289,62
2533963,-3908,2192,17476,-278,278,104
2533975,-3892,2136,17620,-259,302,95
2533987,-3856,2236,17488,-264,299,93
2533999,-3956,2064,17788,-254,55,-4
2534017,-3868,2248,17344,-251,390,120
2534029,-3868,2220,17540,-262,342,74
2534041,-4400,2376,17476,-202,395,-67
2534053,-4744,2252,17332,-4,734,-894
2534065,-3804,2168,17392,-186,738,-75
2534077,-3756,2052,17304,-98,528,-396
2534089,-3524,2236,17532,-204,607,-155
2534101,-3932,2280,17564,-206,461,0
2534113,-4140,2108,17352,-241,509,-81
2534125,-4120,2200,17564,-182,467,-118
2534143,-4188,2212,17588,-69,596,-487
2534155,-3564,2116,17700,-115,668,-419
2534167,-4148,1940,17412,-176,590,-235
2534179,-3912,2328,17544,-374,276,447
2534191,-3836,2244,17416,-232,364,44
2534203,-3996,2168,17524,-253,318,73
2534215,-4072,2152,17540,-249,345,78
2534227,-3976,2280,17400,-256,331,102
2534239,-4076,2144,17564,-269,291,120
2534251,-4076,2128,17464,-236,269,110
2534269,-3964,2272,17412,-273,236,81
2534281,-4092,2252,17512,-270,229,113
2534293,-4064,2252,17640,-254,266,100
2534305,-4032,2180,17316,-267,174,84
2534317,-3916,2080,17612,-240,333,-16
2534329,-3876,2092,17332,-257,205,71
2534341,-4084,2212,17456,-272,326,151
2534353,-4172,2284,17400,-278,211,92
2534365,-3796,2328,17344,-281,162,50
2534377,-4296,2444,17324,-220,-250,-110
2534393,-4040,2096,17592,38,-871,-946
2534405,-4136,2264,17496,89,-895,-1145
2534417,-4372,2340,17104,34,-1069,-881
2534429,-4316,2560,17496,-39,-865,-923
2534441,-4308,2512,17100,245,-1327,-2014
2534453,-4756,2432,16984,624,-2097,-3107
2534465,-4476,2408,17832,523,-2744,-3437
2534477,-5364,2756,17212,619,-2371,-3233
2534489,-4196,2748,16988,555,-754,-3083
2534501,-4444,2336,16744,1134,-308,-3910
2534519,-1976,1608,18624,-149,-586,-2291
2534531,-2880,1896,17792,-204,-1230,-2412
2534543,-3044,1844,17768,-279,-1727,-2194
2534555,-3040,1992,17828,-507,-1595,-1573
2534567,-3352,1996,17824,-640,-785,-1123
2534579,-3564,2032,17800,-774,-725,-900
2534591,-3744,1624,17764,-724,-451,-1028
2534603,-3104,2268,17672,-601,-660,-1055
2534615,-3660,2196,17572,-780,-841,-1070
2534627,-3168,2380,18004,-1330,-1878,-718
2534645,-3388,2232,18200,-1530,-2977,-774
2534657,-3108,2028,17988,-2213,-2676,-566
2534669,-3932,1956,17828,-2529,-3191,-954
2534681,-3032,1932,17640,-2898,-3451,-770
2534693,-3004,1796,17940,-2658,-3562,254
2534705,-4008,1520,17316,-3165,-2647,644
2534717,-1848,1516,18056,-1448,-2340,2018
2534729,-2480,1936,18136,-1544,-1567,1948
2534741,-3488,1932,18728,-2053,-1551,1228
2534753,-3048,1352,17996,-2775,-511,2523
2534771,704,3828,19412,-1102,-282,4917
2534783,-5804,560,18812,-1937,851,1507
2534795,-736,836,18888,-1087,640,4173
2534807,-2104,544,15600,-2881,3357,4746
2534819,-3604,-560,17020,-1706,1805,8208
2534831,-3456,308,17816,-829,1675,7821
2534843,-2872,-576,15112,1370,2375,5542
2534855,4076,4536,18252,7868,3295,6603
2534867,-3356,-32,13596,4948,3202,6173
2534879,-2336,2748,18396,5705,4357,5908
2534897,-3748,3756,17940,9920,5256,7297
2534909,-4452,3044,21084,3521,408,6430
2534921,-3004,2804,16916,2616,-308,5249
2534933,-2624,2700,17080,4365,-1691,5872
2534945,-2324,2512,17360,6351,-2764,6061
2534957,-2084,2728,16468,7932,-5162,7819
2534969,-1972,3364,17900,9049,-5611,9288
2534981,-1672,4228,17580,9888,-4705,9474
2534993,-2944,4696,17728,11848,-4264,10074
2535005,-2736,4960,17672,11910,-2349,8326
2535021,-2084,5568,18036,11262,-1519,7106
2535033,-1496,5632,17496,11209,-1273,7364
2535045,-1164,6312,17200,11854,-701,7645
2535057,-1660,6848,18164,12215,930,8051
2535069,-3444,8476,22368,7743,469,7129
2535081,-664,6312,12452,8869,2218,6940
2535093,-1432,7116,19172,8287,4378,4969
2535105,2028,5120,12364,9163,7852,7791
2535117,-1280,7640,18448,8978,6794,8811
2535129,-4356,6564,13904,9500,6520,7192
2535147,-3436,9180,20748,9192,6414,8993
2535159,680,6264,12856,8335,7504,8752
2535171,-4280,9060,19728,4538,-778,9070
2535183,-1440,8160,18320,-7364,-7019,7905
2535195,-1276,6424,13392,1455,-6164,4465
2535207,608,8120,20064,816,-5410,5236
2535219,-816,8716,18296,-3099,-7243,5428
2535231,280,8692,17420,-3190,-9063,4221
2535243,2524,8184,19024,-3359,-7740,3869
2535255,3928,7944,18340,-3090,-4270,5738
2535273,2616,7772,17548,-1337,-3089,8959
2535285,1008,8008,17980,-1280,-2695,8406
2535297,-3496,8564,17116,-1888,-1266,6829
2535309,1688,8092,17912,-1238,2024,2233
2535321,24,7896,15136,-1184,4283,1444
2535333,12,7820,17776,-1029,6920,154
2535345,-1424,6208,16844,-1487,6578,-2805
2535357,-568,7864,14992,-15,3953,-5608
2535369,-1336,7240,15492,-2564,492,-1983
2535381,-2240,8004,15584,-396,-5307,-1079
2535399,-2304,8152,16048,174,-11898,939
2535411,-816,7872,16400,1032,-14575,917
2535423,736,8140,16984,1695,-15841,3011
2535435,1476,9080,18040,926,-15318,4579
2535447,2316,9488,18136,539,-14552,5183
2535459,3420,9204,18436,-20,-13729,6610
2535471,4140,8912,18672,53,-13055,7602
2535483,5100,8828,18676,1253,-12856,7829
2535495,5644,8992,19700,1754,-12351,8415
2535507,7456,9300,22360,-877,-8279,8846
2535525,6876,9104,21340,-1225,-7103,6899
2535537,8072,8296,20640,-1236,-6949,7364
2535549,7804,8320,20956,-886,-7572,6980
2535561,8080,8408,21116,-843,-8810,5648
2535573,8340,8456,21252,-405,-9677,4082
2535585,8196,8144,21336,388,-10354,2261
2535597,8268,8804,21456,1047,-11320,1908
2535609,8112,8672,20688,1182,-12708,1339
2535621,8192,8404,20296,1203,-13685,856
2535633,8268,8344,19632,1531,-14816,932
2535649,8612,8328,19304,1498,-16665,2360
2535661,8972,8492,18972,1567,-17558,3000
2535673,9456,8144,19044,1621,-17849,2930
2535685,9640,8248,18656,1311,-17096,2732
2535697,9760,8180,17796,1494,-16713,2716
2535709,9748,8536,17156,1717,-16814,2494
2535721,9916,8508,16508,1745,-17379,2672
2535733,10408,8660,16020,1741,-17732,3549
2535745,10324,8580,15584,1603,-17491,4193
2535757,10308,8740,15176,1378,-16686,4514
2535775,10040,8876,14288,1395,-14991,4270
2535787,9928,9044,13596,1308,-14187,4017
2535799,10392,8872,12820,1457,-13644,3796
2535811,10612,8828,12364,1538,-13335,3741
2535823,10240,8740,12176,1876,-13654,3768
2535835,10784,8676,12176,2139,-13171,3094
2535847,10756,8100,11928,2577,-12861,1797
2535859,11816,8036,11776,2412,-13936,1183
2535871,12412,7796,11384,2698,-15002,1619
2535883,12148,7364,11416,2844,-15867,1249
2535901,12960,7200,11288,2206,-16579,745
2535913,12788,6072,10816,1798,-16735,637
2535925,12852,7320,10380,1766,-16302,862
2535937,13044,6928,9628,1695,-16357,1164
2535949,13656,7300,9284,1430,-16707,1050
2535961,13992,7776,8964,1394,-16238,845
2535973,13888,6348,8612,1380,-15172,551
2535985,13032,6300,8100,858,-14427,663
2535997,11892,6404,7268,919,-14466,938
2536009,11692,6824,6576,1337,-14502,1214
2536027,11876,6992,6204,1562,-13712,628
2536039,12104,6188,5980,1420,-13553,905
2536051,11840,6308,5908,974,-13199,811
2536063,12748,6020,5504,403,-12697,307
2536075,12800,6444,4788,1,-11995,379
2536087,12248,6348,4356,119,-11347,846
2536099,11968,6224,4352,-507,-10826,675
2536111,12788,5956,4228,-1000,-10489,897
2536123,13300,5876,4096,-1436,-10473,829
2536135,13620,5732,3636,-1484,-10404,592
2536153,13516,5448,3676,-1303,-10900,199
2536165,13488,5172,3384,-2128,-11123,298
2536177,13364,5532,2804,-2973,-11796,1734
2536189,13036,5408,2564,-3588,-11889,3090
2536201,13184,5628,2392,-4045,-11824,3533
2536213,13336,5808,2596,-4108,-11528,3303
2536225,13072,6088,2340,-4294,-10185,2569
2536237,12724,6196,2012,-4307,-10140,2549
2536249,12908,6216,1912,-4164,-9721,1455
2536261,13672,5956,1764,-4269,-9879,528
2536279,14364,5224,1460,-4423,-9707,-730
2536291,14232,5300,1244,-5000,-9658,-662
2536303,13828,5452,956,-5249,-9560,-551
2536315,13552,5300,1072,-5602,-9585,-869
2536327,13884,5196,852,-5865,-9447,-1010
2536339,13976,5344,396,-6079,-9059,-945
2536351,14008,5424,-44,-6069,-8858,-901
2536363,13812,5092,-184,-6191,-8583,-1490
2536375,13836,4860,-176,-6502,-8525,-1267
2536387,13692,5316,-420,-6550,-8596,-1385
2536403,13780,5704,-448,-6398,-8089,-2535
2536415,14084,5652,-556,-6631,-8362,-2096
2536427,13496,6220,-688,-6360,-8270,-2202
2536439,13436,6424,-1028,-6148,-8594,-2911
2536451,13484,6460,-1192,-5959,-8794,-3032
2536463,13180,6400,-1172,-5930,-8595,-3104
2536475,13128,6612,-1204,-6023,-8485,-2769
2536487,12760,6916,-1252,-5885,-8221,-2811
2536499,12888,7128,-1540,-5779,-8055,-3345
2536511,13360,7200,-1940,-5572,-8126,-3616
2536529,13552,7288,-2520,-4986,-8744,-2935
2536541,12776,7044,-2396,-4753,-8882,-2948
2536553,12576,7088,-2612,-4842,-9101,-3287
2536565,12564,7284,-2732,-4793,-9246,-3857
2536577,12472,7132,-2952,-4907,-9328,-4599
2536589,12236,6900,-3024,-5420,-9320,-5143
2536601,12028,6968,-3212,-6166,-9187,-4715
2536613,11492,7832,-3296,-6569,-9105,-4272
2536625,11004,8504,-2844,-6648,-8561,-3985
2536637,10404,9128,-2736,-6781,-8172,-3859
2536655,10932,9832,-2972,-6524,-7833,-4446
2536667,11184,9716,-2620,-6151,-8089,-5125
2536679,11696,9980,-2376,-5850,-8146,-5680
2536691,11316,10236,-2452,-5416,-8394,-5648
2536703,10528,10716,-2448,-4952,-8488,-5886
2536715,10096,11120,-2900,-4523,-8711,-6401
2536727,10096,11008,-3140,-3870,-8759,-6913
2536739,9780,11068,-3236,-3323,-8596,-7232
2536751,9376,11160,-3580,-2665,-8552,-7861
2536763,8948,11076,-3892,-2221,-8454,-8472
2536790,8096,11220,-4144,-1590,-8297,-9433
2536802,8148,11264,-4488,-1522,-8457,-9496
2536814,7716,11432,-4572,-1290,-8368,-9437
2536826,7572,11284,-4956,-1111,-8384,-9711
2536838,7388,11200,-4656,-1195,-8293,-9584
2536850,7284,11092,-4552,-1393,-8415,-9440
2536862,7012,11444,-4784,-1555,-8686,-8763
2536874,6768,11820,-4868,-1380,-8831,-8112
2536886,6176,12516,-4920,-684,-8955,-8051
2536898,5692,12724,-5084,130,-9026,-8398
2536917,5040,12364,-5648,1951,-9117,-8281
2536929,3744,12256,-5356,2642,-8228,-11474
2536941,4196,11700,-5968,2729,-7905,-11343
2536953,3600,11804,-6176,2927,-7476,-11175
2536965,3212,12388,-6664,3234,-7318,-10755
2536977,3144,12572,-6432,3622,-7212,-10271
2536989,3064,11984,-6604,3443,-7223,-9701
2537001,3092,11644,-6568,2775,-7413,-8507
2537013,2992,11300,-6712,1853,-7823,-7337
2537025,3008,11220,-7048,937,-8065,-5936
2537043,2440,11868,-7288,317,-8215,-5383
2537055,2008,12080,-7208,415,-8485,-5777
2537067,1676,12200,-7156,603,-8775,-6363
2537079,1192,11772,-7184,531,-8932,-7229
2537091,720,11472,-7380,78,-9157,-7326
2537103,476,11284,-7660,-522,-9080,-7518
2537115,416,11192,-8016,-1373,-9018,-7199
2537127,288,11384,-7656,-2351,-8942,-6320
2537139,-184,11896,-7296,-3256,-8965,-5291
2537151,-680,12440,-7164,-4138,-9009,-4240
2537167,-1100,13560,-7268,-4677,-8992,-2919
2537179,-1584,14064,-7180,-4496,-9010,-3025
2537191,-1876,14004,-7160,-4122,-8761,-3802
2537203,-2472,13664,-7028,-3898,-8346,-4743
2537215,-2996,13712,-7136,-3813,-8081,-5465
2537227,-3636,14300,-7548,-3282,-7880,-5819
2537239,-3480,14656,-7696,-2590,-7997,-6049
2537251,-3336,14592,-7520,-1635,-7792,-6225
2537263,-3264,13964,-7440,-1207,-7554,-5830
2537275,-3288,13528,-7228,-1187,-7632,-4919
2537293,-3824,13304,-6872,-1896,-7641,-3338
2537305,-3728,13460,-6772,-2460,-7573,-2249
2537317,-4188,13956,-7324,-2827,-7698,-1156
2537329,-4364,14240,-7380,-2660,-7396,-976
2537341,-4720,13880,-7160,-2350,-7215,-1462
2537353,-4760,13360,-6784,-2229,-6942,-1874
2537365,-5068,13440,-6728,-2124,-6601,-1904
2537377,-5452,13704,-7168,-1924,-6177,-2413
2537389,-5324,13732,-7328,-1790,-5593,-3533
2537401,-4964,13388,-6784,-1691,-5030,-4525
2537419,-5092,13272,-6196,-1780,-4264,-5171
2537431,-5472,13952,-6512,-1778,-3970,-5251
2537443,-5868,14680,-6688,-1482,-3666,-5157
2537455,-6044,15012,-6524,-1018,-3340,-5406
2537467,-6216,14948,-6464,-566,-2798,-5644
2537479,-6324,14440,-6156,-353,-2653,-6010
2537491,-6164,14164,-6296,-544,-2537,-5796
2537503,-6244,14048,-6288,-720,-2342,-5605
2537515,-6032,14144,-6332,-530,-2569,-5324
2537527,-6192,14236,-6108,-274,-2731,-5242
2537545,-6280,13580,-6032,54,-2541,-5613
2537557,-6368,13388,-5956,129,-2543,-5611
2537569,-6480,13160,-6032,48,-2477,-5728
2537581,-6588,13008,-6012,23,-2450,-5797
2537593,-6476,12956,-5896,3,-2487,-5786
2537605,-6388,12820,-6084,166,-2497,-6122
2537617,-6120,12392,-5696,514,-2874,-6241
2537629,-5844,11848,-5700,641,-3276,-6536
2537641,-5880,10984,-5616,362,-3610,-6376
2537653,-6224,10608,-5700,-583,-3608,-6098
2537671,-6888,11488,-5184,-1559,-3900,-5494
2537683,-7188,11952,-4916,-1488,-3972,-5473
2537695,-7808,12440,-4936,-1283,-4352,-5316
2537707,-7856,12564,-4860,-758,-4564,-5339
2537719,-8668,12060,-4696,-418,-4507,-5631
2537731,-8568,11640,-4792,-409,-4374,-5829
2537743,-8724,11472,-4840,-477,-4066,-6288
2537755,-8244,11516,-4644,-401,-3915,-6646
2537767,-8284,11704,-4324,99,-3910,-7044
2537779,-8016,11464,-4060,628,-3746,-7697
2537797,-8072,10788,-3776,1078,-3625,-8366
2537809,-8252,10620,-3880,955,-3669,-8616
2537821,-8316,10376,-3856,811,-3746,-8758
2537833,-8568,10032,-3484,811,-3778,-8926
2537845,-8584,9564,-3232,561,-4389,-8265
2537857,-8756,9460,-3320,61,-4935,-7477
2537869,-9068,9708,-2964,-150,-5222,-7016
2537881,-9452,10028,-3100,-192,-5694,-6734
2537893,-9628,10224,-3028,-134,-6049,-6652
2537905,-9980,10076,-2880,-16,-6373,-6811
2537923,-10432,10212,-2700,-240,-6604,-7478
2537935,-11064,10648,-2688,-324,-6542,-7523
2537947,-11992,10928,-2424,-107,-6421,-8103
2537959,-12192,10640,-2500,319,-6855,-8313
2537971,-12804,10272,-2848,391,-6760,-7901
2537983,-13256,10228,-3304,76,-6377,-7389
2537995,-13660,10740,-3220,-148,-6236,-7292
2538007,-13552,11188,-3164,-105,-6515,-7036
2538019,-13552,11488,-2912,367,-6888,-6369
2538031,-13928,11204,-2720,915,-6943,-5667
2538049,-14832,10628,-3028,949,-7050,-4748
2538061,-14808,10732,-2992,604,-6946,-4371
2538073,-15120,10924,-2916,430,-6993,-4243
2538085,-14704,10776,-2692,637,-7352,-3781
2538097,-15036,10128,-2708,1050,-7419,-3386
2538109,-15320,8964,-2208,883,-7003,-3512
2538121,-15532,8616,-2664,-58,-6539,-2815
2538133,-15640,9316,-2736,-734,-6158,-1629
2538145,-15840,10252,-2492,-626,-5843,-666
2538157,-15820,10320,-2228,146,-5710,-564
2538173,-15316,8932,-1804,424,-5451,-1243
2538185,-14784,8316,-1640,-104,-5347,-491
2538197,-15156,8460,-1652,-368,-4937,464
2538209,-15608,8556,-1776,-272,-4192,67
2538221,-16072,8880,-1356,252,-3406,-1119
2538233,-15876,8780,-1316,982,-2827,-2372
2538245,-15064,8200,-684,1086,-2338,-3414
2538257,-14424,7860,-712,750,-2158,-3154
2538269,-14420,8056,-820,422,-2146,-1939
2538281,-14612,7864,-800,236,-2407,-1149
2538299,-14172,7268,-472,-659,-2847,-1402
2538310,-14144,7344,-564,-977,-3027,-595
2538322,-14752,7408,-680,-905,-3083,-849
2538334,-14864,7032,-656,-970,-3464,-1164
2538346,-15068,6844,-960,-1447,-3363,-1417
2538358,-15212,6516,-680,-1891,-2960,-1367
2538370,-15464,6232,-336,-2574,-2445,-1556
2538382,-15244,6016,-40,-3197,-2234,-1804
2538394,-15008,6008,160,-3983,-2062,-1653
2538406,-14212,5692,424,-4963,-2206,-1516
2538424,-13560,6152,720,-6800,-2380,160
2538436,-14548,7552,816,-7178,-2209,718
2538448,-14744,8164,848,-6891,-2306,431
2538460,-15400,8476,1032,-6477,-2703,-140
2538472,-15016,8312,1192,-5953,-2884,-686
2538484,-15312,7936,1256,-5498,-2721,-1318
2538496,-15228,7760,1528,-5390,-2390,-2472
2538508,-14420,7912,1492,-5618,-2371,-2774
2538520,-13908,8716,1648,-5628,-2424,-2437
2538532,-13844,9076,2320,-5302,-2622,-2357
2538550,-13812,8772,2716,-4877,-3660,-1898
2538562,-14228,8260,2456,-4516,-4051,-1739
2538574,-15036,7664,2244,-4230,-4137,-2142
2538586,-15624,8196,2324,-4164,-3965,-2912
2538598,-15636,8788,2504,-3983,-3747,-3728
2538610,-15172,8936,2832,-3775,-3920,-3886
2538622,-14808,8812,2960,-3753,-4411,-2877
2538634,-15244,8184,3284,-3782,-4695,-2067
2538646,-15616,7336,3004,-4239,-4677,-1541
2538658,-16120,6980,2976,-4762,-4440,-1157
2538676,-16508,7560,2876,-5014,-3405,-1477
2538688,-16116,7604,3192,-5272,-3292,-1587
2538700,-15152,7272,3536,-5779,-3712,-1020
2538712,-14688,7508,3736,-6580,-3881,779
2538724,-15388,8336,3756,-7102,-3742,2323
2538736,-15896,9228,3836,-7054,-3680,2870
2538748,-16408,9624,3936,-6717,-3805,2781
2538760,-15484,9496,4140,-6289,-3977,2707
2538772,-15456,9856,4312,-5782,-3640,2363
2538784,-15204,9812,4712,-5240,-3408,1540
2538802,-14880,9736,4676,-4529,-3196,798
2538814,-15260,9816,4676,-3881,-2803,303
2538826,-15616,9632,4756,-3138,-2579,-673
2538838,-15528,9040,4764,-2756,-2517,-1288
2538850,-15192,8724,4668,-2639,-2441,-1200
2538862,-15376,8872,4672,-2560,-2364,-724
2538874,-15456,9552,4572,-2304,-2257,-273
2538886,-15516,9804,4672,-1773,-2184,-381
2538898,-15400,9612,4732,-1149,-2214,-799
2538910,-15260,9300,4816,-824,-2148,-1026
2538926,-15612,9348,4812,-631,-2132,-1039
2538938,-16164,9484,4628,-502,-1977,-1069
2538950,-16460,9732,4536,-416,-1618,-1027
2538962,-16696,9988,4300,-286,-1172,-800
2538974,-16960,10156,4312,49,-781,-359
2538985,-16980,10316,4460,422,-527,-220
2538997,-16536,10048,4404,735,-284,-103
2539009,-16460,9764,4480,899,-15,222
2539021,-16544,9628,4592,1243,285,247
2539033,-16636,9768,4676,1706,562,-28
2539051,-16096,9436,4596,2339,1044,-440
2539063,-16080,9288,4700,2566,1139,-188
2539075,-15964,9320,4616,2722,1182,126
2539087,-16240,9380,4704,2878,1220,223
2539099,-16252,9212,4640,3055,1415,314
2539111,-16212,9168,4540,3313,1676,459
2539123,-16600,9216,4388,3598,1950,346
2539135,-16636,9372,4452,3910,2285,245
2539147,-16980,9592,4056,4267,2573,193
2539159,-16872,9812,4060,4570,2869,69
2539177,-16476,9868,3888,4880,3104,310
2539189,-16480,10132,4112,5122,3208,411
2539202,-16852,10196,4076,5451,3269,344
2539214,-17252,10296,3932,5847,3441,-88
2539226,-17308,10492,3780,6130,3451,-82
2539238,-17932,10820,3472,6538,3540,-48
2539250,-18440,10900,3644,6627,3550,-338
2539262,-18040,10576,3228,6691,3685,-535
2539274,-17984,10944,3108,6913,3999,321
2539286,-18664,11192,2788,7226,4346,959
2539304,-19380,11420,3124,7649,5209,885
2539316,-19460,10816,2956,7807,5545,342
2539328,-19072,10228,2356,8067,5894,444
2539340,-19128,10380,2136,8551,6517,944
2539352,-19376,10756,2208,8983,7445,927
2539364,-19228,10960,2176,9588,8332,516
2539376,-18912,10396,2304,10038,8888,-192
2539388,-18632,9424,2332,10022,8973,-118
2539400,-18820,8924,1944,9751,9041,361
2539412,-18988,8288,1576,9582,9460,1053
2539430,-19020,7764,1496,8526,10300,1918
2539442,-18912,7456,1364,7758,10789,3044
2539454,-18180,6528,1028,7145,10948,3890
2539466,-17472,6060,820,6480,11236,4603
2539478,-17340,5948,776,6001,11559,5709
2539490,-17396,6056,476,5617,11816,5806
2539502,-17048,6328,364,5379,11893,5815
2539514,-16732,6696,172,5495,11923,5548
2539526,-16532,6984,-92,5540,11975,5061
2539538,-16472,7012,-476,5643,11855,4847
2539554,-16280,6668,-716,5508,11727,4147
2539566,-16020,6584,-968,5287,11657,3915
2539578,-15832,6596,-1184,4749,11783,4156
2539590,-15596,7104,-1632,4276,11798,4902
2539602,-15456,7784,-2120,3684,11856,5544
2539614,-15600,8212,-2400,3519,11793,6221
2539626,-15428,8396,-2676,3513,11481,6653
2539638,-15580,8324,-2792,3668,11463,6606
2539650,-15240,8360,-3336,3849,11671,6190
2539662,-15148,8356,-3824,3924,11991,5851
2539680,-14248,8412,-4020,3945,12006,5246
2539692,-13808,7852,-3980,3406,11782,6075
2539704,-13708,7984,-4324,2599,11270,7794
2539716,-14696,8588,-4612,2240,11271,8756
2539728,-15188,8932,-5204,2401,11275,8428
2539740,-15060,9128,-5740,2706,11620,7446
2539752,-15020,8840,-6000,2973,11830,6200
2539764,-14136,8736,-5664,2995,11923,5727
2539776,-13796,8104,-5520,2989,11966,5135
2539788,-13036,8076,-5520,2482,12134,4545
2539806,-12292,8628,-5812,1926,12566,4324
2539818,-11232,8088,-5672,1542,12375,4422
2539830,-10184,7632,-6064,976,12164,5684
2539842,-10176,7776,-5916,903,12073,7545
2539854,-10252,8032,-6000,738,12403,9083
2539866,-10424,8652,-6932,812,12748,9900
2539878,-10120,8748,-6876,958,13415,9763
2539890,-9588,8220,-6560,1098,13500,9165
2539902,-8884,7816,-6436,1054,13624,9258
2539914,-8848,7996,-6620,1103,13956,9538
2539932,-7764,8172,-6948,1324,13964,9139
2539944,-6864,7848,-7236,1225,13912,9196
2539956,-6052,7696,-6760,1104,13935,9822
2539968,-5756,7272,-7036,964,13642,10426
2539980,-5544,7560,-7080,1306,13473,10527
2539992,-5176,7756,-7488,2026,13485,9322
2540004,-4836,8020,-7804,2702,13935,7631
2540016,-3432,8012,-8068,3404,13932,5964
2540028,-1828,8296,-8120,3883,14584,4675
2540040,-968,8084,-7200,4359,14623,3845
2540058,-2208,6708,-6524,5948,12112,1595
2540070,-2040,5852,-7256,7133,10932,-963
2540082,-2440,4360,-9172,7294,10913,-3150
2540094,-3756,3944,-9844,6577,12229,-4217
2540106,-4224,3508,-10328,4932,13759,-4648
2540118,-3944,4008,-10616,2832,14722,-3484
2540130,-2152,5044,-10152,762,15980,-1139
2540142,-364,5736,-9404,-899,16223,1761
2540154,604,6860,-8228,-3229,16578,5188
2540166,-188,7308,-8320,-3657,15236,8208
2540184,760,7748,-8916,-3416,14500,10416
2540196,604,7284,-8564,-3350,14784,10093
2540208,1572,7240,-8272,-3055,15124,9927
2540220,1876,7252,-7852,-2882,15380,8915
2540232,2656,7236,-7524,-2835,15203,8376
2540244,2788,7692,-7912,-2309,15480,8046
2540256,2996,8020,-8180,-1324,16163,7728
2540268,2828,7420,-7888,-406,16722,6001
2540280,3672,6488,-7540,-569,17244,4840
2540292,4448,6396,-7628,-1025,17398,5812
2540308,4536,7332,-7236,-927,17744,5672
2540320,4940,7800,-6980,-584,17619,5408
2540332,5036,7852,-6556,-99,17744,4559
2540344,5756,7396,-6448,123,17432,4158
2540356,6448,6908,-6404,-140,17302,4408
2540368,7240,6836,-6316,-709,17402,4593
2540380,8076,6760,-5832,-1385,17563,5231
2540392,8560,7264,-5352,-1481,17467,6251
2540404,8804,7592,-4996,-962,17460,6566
2540416,8756,7712,-4436,-277,17162,5236
2540434,10208,6796,-3916,451,16354,3168
2540446,11324,6148,-3296,-85,16046,2228
2540458,12288,5404,-3524,-708,15465,2198
2540470,12716,6336,-3340,-1117,14992,3014
2540482,12332,7364,-3212,-869,14697,3160
2540494,12212,7480,-3028,-330,14495,2215
2540506,12868,7032,-2744,-39,13957,2012
2540518,13096,6940,-2432,74,13839,2058
2540530,12740,6724,-2352,394,13275,1904
2540542,12452,7052,-2424,616,13201,1283
2540560,12236,6892,-2652,1436,13321,-773
2540572,12724,6520,-2256,1444,13351,-1564
2540584,13276,6656,-2112,1369,13469,-1457
2540596,13404,6944,-1724,1077,13147,-1007
2540608,13572,7292,-1396,912,12754,-552
2540620,13552,7352,-1116,891,12491,-507
2540632,13608,7176,-828,790,12003,-476
2540644,13644,6928,-572,775,11634,-681
2540656,13480,6716,-608,723,11245,-1170
2540668,13132,6616,-716,510,11133,-1718
2540686,13252,7016,-560,171,11507,-2183
2540698,13288,7340,-424,219,11478,-1788
2540710,12928,7456,-80,249,11514,-1679
2540722,13224,7316,356,309,11366,-1942
2540734,13152,6828,592,144,11437,-2376
2540746,13208,6588,784,-196,11431,-2380
2540758,12836,6568,864,-587,11204,-2521
2540770,12548,6672,916,-902,11058,-2646
2540782,12488,6720,1016,-1243,10982,-2617
2540794,12592,6656,1436,-1728,11011,-2447
2540812,12420,6956,1660,-2837,11123,-1177
2540824,11796,7772,2020,-2777,11091,-519
2540836,11496,7644,2368,-2410,11253,-1430
2540848,12252,6852,2864,-2525,11118,-2250
2540860,12552,6368,3032,-3329,11167,-2021
2540872,12332,6608,3132,-4137,11155,-1150
2540884,11944,7140,3524,-4684,11031,-267
2540896,11592,7708,4132,-4771,11248,272
2540908,11640,7912,4452,-4108,11483,65
2540920,11572,7544,5120,-3656,11256,-739
2540936,12360,6092,5524,-4307,11054,-1393
2540948,12128,6164,5780,-5153,11047,-839
2540960,11560,6936,5816,-5587,11107,-902
2540972,11456,7588,6136,-5777,11363,-1031
2540984,11700,7612,6756,-5863,11636,-828
2540996,12084,7728,7412,-5787,11536,-208
2541008,12368,7916,7876,-5727,11544,-145
2541020,12292,7720,8280,-6140,11478,108
2541032,12224,7800,8644,-6748,11298,879
2541044,12052,8476,9004,-6862,10859,1632
2541062,11968,7856,9672,-7114,11241,1030
2541074,12344,8484,10376,-7475,11066,2463
2541086,12116,9316,10532,-7322,11415,3232
2541098,12288,9508,11480,-6811,11554,3317
2541110,12448,9656,11928,-6100,10773,3502
2541122,13368,8584,12816,-5477,10561,2124
2541134,13684,7740,12680,-5384,10673,1220
2541146,13104,8128,12644,-5081,10653,855
2541158,12392,8128,12608,-4933,10556,173
2541170,12816,8500,12696,-5221,10860,657
2541188,13228,9232,14264,-5065,10878,1148
2541200,14744,9552,15404,-5177,10399,2715
2541212,14328,9384,14928,-4037,8741,3035
2541224,13880,8556,15336,-3692,8177,1610
2541236,13856,7964,15020,-3650,7651,905
2541248,13896,7980,15024,-3807,7189,341
2541260,14308,8048,15264,-3785,6991,520
2541272,14168,8620,15164,-3283,6516,1341
2541284,13516,8528,15312,-1974,6480,236
2541296,14224,7440,15184,-1379,6206,-1284
2541314,14380,6388,15124,-1979,5988,-736
2541326,13252,6868,14900,-1278,5748,-355
2541338,12728,7108,15308,-350,6047,-3126
2541350,13004,6496,15212,361,5749,-5057
2541362,12508,5856,15092,319,6020,-6268
2541374,11676,6036,14560,-487,6000,-5792
2541386,11028,7308,14312,-1082,5455,-3709
2541398,10608,7956,14988,-979,5528,-4142
2541410,12484,7392,15836,-1037,5092,-3954
2541422,13056,6656,16000,-1732,4778,-2239
2541440,11376,6600,15840,-2882,4072,160
2541452,10208,7220,15412,-2943,3771,807
2541464,9720,7468,15364,-2482,4157,-192
2541476,10332,7184,15364,-2097,4511,-1549
2541488,10948,6756,15512,-2283,4763,-1545
2541500,10812,7012,15700,-2822,4869,-648
2541512,10420,7252,15624,-2960,4730,-127
2541524,10500,7640,15708,-3109,4564,21
2541536,10532,7444,14856,-3175,4671,698
2541548,9192,7980,14816,-2786,5115,627
2541566,8852,7284,15084,-2171,6209,-1071
2541578,9152,6924,15424,-2624,6566,-1801
2541590,8832,7444,14924,-2498,7108,-2737
2541602,7612,7524,14800,-2213,7225,-4612
2541614,7096,7532,14628,-3116,7834,-6644
2541626,6264,7424,13708,-4064,8888,-7777
2541638,5808,7788,13556,-4884,10190,-8012
2541650,5100,9264,14216,-5033,10742,-9091
2541662,6088,9380,15120,-6136,10078,-10089
2541674,6896,8700,14976,-7131,8930,-10635
2541690,7036,8776,15984,-6853,10098,-10391
2541702,6296,8484,15292,-7737,11631,-10812
2541714,4896,9528,15420,-7621,12255,-11163
2541726,5552,9632,15612,-7053,12248,-11087
2541738,4832,9728,16228,-6158,12857,-10404
2541750,5112,9856,16792,-5391,12917,-10505
2541762,3920,9676,17040,-5142,12397,-11040
2541774,4828,9940,17336,-4501,11601,-11202
2541786,4880,9828,18144,-3397,10235,-11095
2541798,5700,9924,18716,-2361,9183,-11084
2541816,3740,10484,18496,-437,10554,-12865
2541828,2244,9648,17680,726,11166,-15369
2541840,680,9116,16644,2249,11456,-16675
2541852,-804,9252,16240,3942,12092,-17681
2541864,-1956,9240,16612,4855,11434,-19459
2541876,-1292,9236,16516,5723,10664,-20455
2541888,-1148,8988,16588,6400,10207,-21188
2541900,-1084,8556,16480,6027,9533,-21021
2541912,-1564,8540,16048,5604,8071,-18377
2541924,-2036,9028,16208,5755,7088,-16614
2541942,-2612,8452,17396,3311,6272,-15853
2541954,-2504,8280,16820,1285,6744,-15598
2541966,-2596,7428,16492,-488,6972,-15317
2541978,-2952,7040,16208,-1435,6540,-14538
2541990,-2892,7516,16604,-2475,5579,-13580
2542002,-3628,7804,17256,-3522,3819,-12038
2542014,-4232,8188,17304,-6230,2852,-11907
2542026,-4440,7152,16056,-5080,880,-11142
2542038,-4800,7228,16216,-5118,409,-9350
2542050,-21280,21224,32767,-22594,-15176,-13482
2542068,-4260,5744,14356,-25319,-8552,-10905
2542080,444,2572,17728,-17323,-9326,-8173
2542092,-4920,3748,17056,-16562,-7124,-4915
2542104,-1568,2668,22452,-9784,-1652,-11093
2542116,-7068,3484,13884,-11742,-2170,-10030
2542128,-2260,2740,18268,-4995,-6396,-7404
2542140,-2776,4616,21784,-8379,1784,-4369
2542152,-2780,-276,16940,-5853,1547,-5860
2542164,-1928,1812,16268,-6329,-701,-2976
2542176,-3964,1776,17420,-6941,-1464,-1913
2542194,-3256,1976,18060,-10439,-917,-1091
2542206,-3620,936,17296,-11225,-1599,735
2542218,-3668,1396,18500,-12038,-1744,3054
2542230,-4040,1340,16672,-12707,509,1444
2542242,-2928,2140,17128,-11517,-2069,353
2542254,-2236,460,12672,-11183,-15748,137
2542266,844,-224,23520,-8783,-12403,1252
2542278,-4312,1532,23564,-9131,2740,-298
2542290,1100,904,6832,-5035,21979,1291
2542302,12692,-2464,-3152,8544,32767,11574
2542320,3192,-940,-236,31559,32767,19923
2542332,-2760,8608,32767,-6335,32767,-32768
2542344,-9076,-18112,-12652,10205,4960,7719
2542356,-9256,-3296,27288,-1852,1002,-939
2542368,-5200,6176,13052,-276,278,385
2542380,-4432,2296,17848,-650,578,936
2542392,-5216,-760,14496,729,-3213,602
2542404,-4736,348,16892,478,-6720,2619
2542416,-5032,2436,18244,440,-3204,731
2542428,-1880,3476,18672,-688,1287,351
2542444,-4580,2444,17236,-777,3622,-625
2542456,-4844,1464,16900,-645,3763,-1163
2542468,-5340,1132,16456,73,762,-1204
2542480,-4896,1504,17040,93,-1188,52
2542492,-4476,1140,17576,106,-1372,199
2542504,-5016,1720,17380,-140,-363,140
2542516,-4800,1416,16964,-148,-517,319
2542528,-4900,1484,17380,-91,-835,408
2542540,-4632,1732,17716,-227,73,141
2542552,-4524,1440,17432,-455,1093,137
2542570,-4908,1484,17044,-429,1002,156
2542582,-4844,1516,17100,-208,108,156
2542594,-4724,1500,17144,-36,-653,76
2542606,-4704,1516,17368,-117,-424,55
2542618,-4704,1480,17348,-208,-69,93
2542630,-4828,1596,17360,-278,311,62
2542642,-4712,1580,17464,-268,387,107
2542654,-4708,1660,17256,-361,633,110
2542666,-4808,1372,17244,-291,426,128
2542678,-4736,1568,17536,-277,228,100
2542696,-4944,1568,17204,-147,-233,62
2542708,-4672,1540,17372,-224,59,85
2542720,-4748,1548,17284,-245,172,129
2542732,-4732,1524,17252,-277,353,110
2542744,-4684,1536,17284,-262,322,92
2542756,-4740,1592,17428,-266,249,101
2542768,-4756,1552,17400,-246,179,120
2542780,-4764,1568,17276,-250,173,117
2542792,-4684,1472,17352,-232,102,91
2542804,-4764,1564,17412,-254,239,92
2542822,-4740,1524,17176,-279,277,85
2542834,-4676,1516,17324,-279,259,99
2542846,-4720,1552,17304,-283,213,120
2542858,-4708,1616,17308,-257,174,112
2542870,-4792,1596,17332,-234,178,111
2542882,-4720,1616,17332,-242,227,96
2542894,-4756,1588,17252,-250,263,128
2542906,-4780,1624,17360,-262,249,93
2542918,-4712,1604,17348,-231,203,134
2542930,-4672,1552,17264,-246,162,110
2542946,-4744,1560,17232,-260,205,122
2542958,-4804,1504,17264,-255,241,98
2542970,-4784,1496,17460,-247,229,90
2542982,-4700,1496,17364,-279,214,120
2542994,-4624,1620,17296,-249,198,136
2543006,-4672,1588,17272,-255,191,110
2543018,-4628,1672,17360,-264,174,78
2543030,-4684,1544,17292,-261,235,94
2543042,-4624,1604,17248,-263,217,98
2543054,-4636,1620,17368,-249,204,118
2543072,-4648,1568,17176,-257,228,114
2543084,-4824,1572,17432,-255,219,130
2543096,-4708,1584,17264,-262,209,100
2543108,-4712,1468,17284,-279,218,105
2543120,-4792,1504,17260,-234,226,107
2543132,-4708,1596,17192,-251,212,110
2543144,-4752,1544,17520,-261,234,104
2543156,-4700,1524,17324,-276,272,113
2543168,-4656,1536,17308,-246,194,117
2543180,-4724,1620,17352,-257,213,137
2543198,-4572,1492,17328,-254,244,105
2543210,-4732,1504,17288,-260,197,96
2543222,-4596,1612,17364,-270,225,129
2543234,-4668,1452,17320,-255,239,122
2543246,-4752,1632,17248,-253,215,119
2543258,-4668,1584,17204,-258,223,94
2543270,-4752,1568,17436,-292,237,83
2543282,-4660,1624,17212,-257,214,112
2543294,-4744,1576,17424,-242,235,109
2543306,-4748,1520,17196,-236,218,130
2543324,-4772,1548,17412,-253,223,104
2543336,-4776,1524,17240,-263,190,140
2543348,-4780,1604,17324,-273,217,112
2543360,-4676,1564,17328,-275,233,92
2543372,-4668,1552,17320,-256,202,126
2543384,-4680,1560,17320,-259,213,120
2543396,-4636,1544,17388,-251,203,116
2543408,-4672,1504,17288,-247,228,129
2543420,-4692,1532,17388,-256,237,143
2543432,-4604,1544,17312,-272,210,119
2543448,-4688,1568,17312,-254,199,94
2543460,-4740,1528,17284,-249,204,118
2543472,-4688,1568,17212,-269,217,113
2543484,-4652,1564,17300,-241,231,114
2543496,-4648,1592,17348,-242,223,117
2543508,-4740,1492,17388,-246,265,97
2543520,-4748,1572,17264,-252,224,111
2543532,-4684,1632,17268,-256,239,71
2543544,-4624,1592,17376,-256,223,107
2543556,-4800,1544,17220,-284,233,115
2543574,-4680,1520,17348,-249,223,94
2543586,-4712,1500,17312,-280,219,110
2543598,-4580,1572,17348,-247,222,139
2543610,-4624,1580,17408,-240,255,121
2543622,-4648,1532,17404,-228,246,114
2543634,-4632,1568,17332,-275,231,94
2543646,-4568,1492,17348,-246,226,107
2543658,-4716,1472,17300,-264,216,88
2543670,-4652,1588,17300,-249,203,104
2543682,-4680,1548,17328,-246,255,139
2543700,-4540,1540,17296,-270,248,114
2543712,-4684,1580,17332,-279,238,141
2543724,-4572,1580,17272,-257,254,112
2543736,-4720,1576,17252,-274,250,116
2543748,-4696,1564,17336,-265,245,119
2543760,-4808,1548,17388,-255,234,107
2543772,-4680,1536,17376,-261,231,116
2543784,-4604,1596,17196,-286,242,96
2543796,-4616,1540,17424,-256,236,101
2543808,-4660,1640,17448,-280,235,100
2543826,-4620,1496,17364,-250,217,113
2543838,-4572,1604,17336,-244,210,121
2543850,-4624,1536,17376,-261,209,104
2543862,-4724,1548,17420,-250,228,96
2543874,-4616,1652,17400,-258,225,140
2543886,-4648,1588,17376,-269,260,95
2543898,-4552,1524,17200,-282,217,86
2543910,-4708,1496,17348,-281,250,93
2543922,-4680,1652,17452,-275,257,130
2543934,-4748,1536,17412,-281,254,111
2543952,-4656,1508,17344,-252,271,110
2543964,-4636,1604,17256,-267,220,103
2543976,-4676,1640,17232,-241,245,93
2543988,-4700,1496,17544,-259,226,95
2544000,-4680,1592,17380,-274,230,104
2544012,-4636,1600,17252,-271,248,91
2544024,-4632,1636,17288,-263,280,99
2544036,-4644,1576,17320,-249,212,123
2544048,-4572,1628,17256,-290,270,113
2544060,-4732,1416,17272,-267,247,121
2544076,-4680,1492,17308,-256,255,92
2544088,-4644,1472,17472,-248,215,104
2544100,-4636,1540,17228,-268,250,99
2544112,-4656,1512,17428,-252,201,107
2544124,-4592,1516,17348,-277,239,89
2544136,-4592,1536,17216,-261,237,131
2544148,-4616,1584,17260,-243,259,111
2544160,-4672,1528,17196,-247,251,87
2544172,-4696,1496,17328,-267,239,99
2544184,-4628,1528,17272,-258,280,121
2544202,-4600,1500,17304,-251,252,125
2544214,-4604,1480,17340,-238,251,112
2544226,-4604,1552,17348,-264,249,122
2544238,-4688,1584,17224,-283,220,93
2544250,-4704,1568,17360,-290,237,97
2544262,-4636,1492,17368,-284,260,97
2544274,-4752,1536,17436,-248,224,121
2544286,-4668,1548,17268,-257,261,121
2544298,-4704,1464,17376,-238,267,112
2544310,-4620,1548,17268,-276,244,106
2544328,-4700,1440,17344,-286,246,113
2544340,-4612,1620,17340,-266,242,123
2544352,-4704,1568,17380,-258,244,87
2544364,-4616,1572,17372,-253,231,99
2544376,-4672,1492,17460,-277,246,112
2544388,-4676,1460,17360,-230,254,126
2544400,-4648,1568,17288,-252,236,111
2544412,-4704,1460,17288,-246,247,84
2544424,-4692,1552,17456,-271,233,103
2544436,-4504,1592,17356,-300,245,143
2544454,-4628,1588,17256,-262,243,82
2544466,-4568,1556,17388,-265,245,106
2544478,-4724,1620,17256,-263,240,101
2544490,-4656,1604,17420,-266,235,98
2544502,-4676,1584,17288,-228,232,100
2544514,-4656,1580,17388,-275,241,89
2544526,-4688,1584,17428,-271,238,124
2544538,-4684,1440,17244,-245,236,82
2544550,-4680,1632,17316,-259,229,79
2544562,-4692,1604,17352,-266,257,100
2544578,-4644,1524,17220,-283,230,101
2544590,-4600,1484,17380,-270,249,106
2544602,-4536,1476,17368,-268,223,86
2544614,-4584,1492,17316,-285,235,88
2544626,-4620,1572,17332,-275,242,90
2544638,-4616,1500,17464,-261,247,109
2544650,-4656,1564,17460,-273,228,133
2544662,-4696,1560,17388,-261,230,97
2544674,-4712,1536,17384,-259,250,86
2544686,-4628,1588,17268,-269,234,105
2544704,-4748,1500,17444,-258,221,95
2544716,-4664,1676,17284,-256,254,91
2544728,-4688,1568,17448,-262,224,111
2544740,-4536,1468,17448,-222,238,97
2544752,-4736,1624,17312,-274,232,111
2544764,-4684,1520,17452,-255,268,100
2544776,-4676,1564,17316,-249,261,106
2544788,-4556,1536,17284,-280,256,120
2544800,-4664,1560,17488,-276,273,146
2544812,-4668,1612,17284,-261,229,88
2544830,-4556,1664,17324,-254,266,116
2544842,-4660,1548,17484,-278,250,103
2544854,-4664,1672,17168,-262,257,119
2544866,-4680,1544,17456,-256,280,108
2544878,-4700,1540,17296,-269,262,81
2544890,-4704,1552,17476,-249,262,87
2544902,-4648,1544,17244,-250,273,127
2544914,-4672,1512,17272,-255,260,100
2544926,-4704,1520,17324,-265,220,99
2544938,-4744,1516,17468,-260,214,116
2544956,-4576,1624,17372,-246,254,96
2544968,-4676,1524,17268,-253,235,97
2544980,-4628,1676,17272,-268,218,116
2544992,-4584,1548,17260,-303,229,111
2545004,-4588,1576,17332,-248,246,77
2545016,-4696,1532,17392,-250,241,111
2545028,-4596,1604,17544,-254,273,105
2545040,-4520,1472,17276,-278,241,101
2545052,-4548,1616,17320,-268,235,91
2545064,-4588,1564,17232,-270,250,110
2545080,-4676,1560,17436,-266,271,128
2545092,-4692,1624,17372,-281,242,86
2545104,-4500,1600,17352,-252,213,129
2545116,-4600,1600,17348,-246,248,97
2545128,-4664,1568,17376,-275,225,126
2545140,-4724,1560,17480,-290,229,89
2545152,-4728,1540,17296,-256,250,121
2545164,-4780,1472,17456,-245,268,119
2545176,-4692,1508,17260,-257,258,107
2545188,-4544,1528,17208,-267,253,105
2545206,-4612,1732,17388,-282,232,89
2545218,-4664,1496,17388,-248,263,123
2545230,-4620,1516,17400,-229,242,65
2545242,-4688,1596,17328,-244,237,138
2545254,-4636,1520,17196,-265,242,113
2545266,-4584,1572,17376,-254,258,112
2545278,-4588,1516,17380,-265,274,103
2545290,-4676,1620,17392,-292,269,111
2545302,-4744,1480,17420,-238,259,128
2545314,-4688,1548,17436,-264,241,103
2545332,-4560,1564,17308,-271,280,113
2545344,-4620,1520,17328,-276,258,104
2545356,-4684,1596,17268,-270,270,116
2545368,-4688,1680,17376,-257,269,111
2545380,-4564,1556,17344,-253,249,89
2545392,-4624,1564,17444,-281,243,85
2545404,-4612,1600,17380,-264,238,107
2545416,-4676,1564,17284,-246,243,93
2545428,-4772,1536,17380,-256,253,95
2545440,-4612,1556,17468,-247,238,97
2545458,-4612,1564,17312,-252,229,106
2545470,-4636,1588,17360,-261,249,95
2545482,-4676,1516,17268,-257,247,90
2545494,-4680,1680,17448,-251,255,109
2545506,-4724,1656,17192,-277,237,113
2545518,-4604,1620,17108,-277,238,95
2545530,-4640,1600,17348,-251,254,99
2545542,-4724,1588,17332,-276,264,89
2545554,-4624,1588,17316,-255,255,101
2545566,-4712,1520,17260,-276,285,105
2545582,-4664,1608,17332,-263,249,134
2545594,-4616,1576,17336,-249,243,100
2545606,-4632,1568,17272,-272,246,115
2545618,-4648,1520,17476,-259,263,133
2545630,-4520,1648,17428,-249,264,125
2545642,-4600,1624,17428,-270,232,68
2545654,-4568,1508,17396,-265,258,121
2545666,-4600,1588,17232,-262,222,100
2545678,-4624,1536,17380,-278,266,111
2545690,-4632,1520,17368,-261,251,77
2545708,-4576,1568,17360,-266,227,84
2545720,-4668,1540,17360,-253,241,113
2545732,-4708,1520,17308,-275,236,88
2545744,-4664,1592,17300,-293,260,82
2545756,-4564,1588,17128,-273,256,105
2545768,-4636,1520,17336,-286,259,112
2545780,-4636,1636,17300,-266,254,80
2545792,-4628,1568,17376,-256,230,119
2545804,-4668,1404,17392,-263,249,136
2545816,-4564,1628,17312,-257,248,107
2545834,-4612,1580,17312,-260,256,106
2545846,-4648,1560,17336,-273,238,140
2545858,-4588,1552,17308,-280,238,113
2545870,-4620,1500,17364,-266,252,115
2545882,-4664,1608,17472,-271,263,92
2545894,-4616,1464,17400,-267,254,96
2545906,-4616,1612,17252,-249,218,90
2545918,-4608,1564,17404,-256,269,99
2545930,-4628,1548,17364,-291,239,119
2545942,-4676,1564,17484,-235,276,98
2545960,-4636,1540,17440,-270,255,117
2545972,-4564,1500,17488,-252,246,97
2545984,-4656,1496,17204,-269,241,109
2545996,-4680,1656,17460,-260,261,123
2546008,-4676,1512,17364,-266,250,104
2546020,-4656,1632,17348,-238,263,98
2546032,-4628,1656,17312,-255,267,96
2546044,-4688,1564,17356,-262,279,124
2546056,-4636,1588,17276,-284,245,105
2546068,-4544,1536,17296,-257,265,95
2546084,-4608,1552,17396,-251,266,111
2546096,-4712,1512,17308,-242,242,91
2546108,-4624,1524,17328,-261,260,116
2546120,-4516,1576,17252,-271,242,94
2546132,-4600,1516,17392,-245,264,121
2546144,-4604,1584,17232,-266,246,103
2546156,-4624,1564,17460,-265,245,113
2546168,-4776,1664,17284,-242,242,112
2546180,-4648,1548,17384,-280,249,107
2546192,-4600,1584,17432,-270,246,94
2546210,-4612,1524,17280,-261,254,117
2546222,-4684,1580,17416,-269,246,95
2546234,-4636,1596,17460,-250,244,99
2546246,-4640,1576,17388,-270,258,96
2546258,-4596,1680,17388,-262,238,115
2546270,-4672,1604,17268,-269,243,98
2546282,-4564,1628,17428,-265,253,132
2546294,-4580,1520,17224,-283,256,116
2546306,-4604,1564,17424,-282,254,113
2546318,-4608,1596,17332,-238,239,89
2546336,-4596,1604,17428,-259,257,100
2546348,-4568,1664,17332,-233,247,80
2546360,-4744,1564,17432,-263,254,109
2546372,-4592,1596,17252,-258,248,90
2546384,-4636,1576,17428,-273,252,95
2546396,-4596,1444,17388,-240,248,104
2546408,-4596,1556,17264,-272,251,112
2546420,-4652,1552,17396,-267,266,131
2546432,-4576,1608,17336,-253,243,87
2546444,-4680,1536,17264,-251,223,131
2546462,-4632,1620,17432,-284,236,112
2546474,-4656,1564,17448,-265,265,106
2546486,-4604,1620,17252,-247,246,98
2546498,-4508,1548,17388,-264,230,128
2546510,-4624,1556,17292,-266,252,99
2546522,-4696,1528,17388,-252,246,130
2546534,-4644,1592,17276,-241,256,104
2546546,-4552,1560,17408,-251,230,106
2546558,-4696,1580,17352,-273,218,83
2546570,-4616,1552,17444,-253,257,103
2546586,-4564,1596,17292,-246,244,97
2546598,-4528,1504,17408,-258,273,104
2546610,-4552,1608,17272,-263,251,90
2546622,-4584,1616,17348,-272,243,93
2546634,-4672,1632,17432,-263,270,93
2546646,-4596,1656,17296,-261,263,91
2546658,-4560,1628,17400,-251,247,86
2546670,-4604,1568,17464,-267,251,109
2546682,-4576,1540,17300,-262,245,117
2546694,-4692,1576,17480,-265,239,100
2546712,-4608,1540,17424,-239,240,93
2546724,-4680,1652,17324,-255,248,129
2546736,-4736,1504,17328,-257,232,96
2546748,-4532,1460,17324,-257,233,92
2546760,-4672,1608,17308,-251,204,106
2546772,-4536,1488,17424,-268,254,94
2546784,-4620,1628,17496,-303,263,121
2546796,-4468,1536,17464,-265,246,93
2546808,-4584,1624,17368,-269,283,111
2546820,-4560,1600,17388,-286,240,99
2546848,-4608,1560,17288,-248,222,96
2546860,-4596,1536,17332,-251,274,95
2546872,-4720,1596,17500,-250,271,68
2546884,-4672,1592,17296,-261,244,104
2546896,-4608,1568,17264,-270,274,99
2546908,-4664,1620,17404,-269,256,119
2546920,-4640,1564,17360,-289,235,91
2546932,-4560,1524,17336,-251,275,132
2546944,-4580,1452,17328,-280,261,85
2546956,-4572,1560,17328,-258,223,69
2546976,-4684,1576,17264,-275,273,106
2546988,-4656,1548,17396,-270,259,97
2547000,-4584,1608,17392,-250,266,90
2547012,-4636,1512,17436,-234,220,100
2547024,-4604,1560,17264,-256,225,115
2547036,-4636,1452,17380,-254,252,109
2547048,-4564,1572,17196,-255,266,119
2547060,-4572,1572,17464,-270,256,112
2547072,-4628,1564,17360,-283,271,93
2547084,-4628,1508,17348,-239,278,77
2547100,-4612,1576,17372,-256,250,101
2547112,-4640,1588,17356,-247,243,97
2547124,-4568,1672,17328,-240,232,104
2547136,-4592,1636,17304,-268,241,114
2547148,-4648,1584,17164,-235,243,145
2547160,-4604,1592,17308,-263,228,94
2547172,-4592,1604,17328,-273,249,85
2547184,-4628,1580,17412,-257,270,111
2547196,-4604,1532,17184,-253,245,116
2547208,-4572,1568,17312,-279,230,96
2547226,-4568,1560,17320,-268,244,112
2547238,-4536,1572,17204,-235,243,96
2547250,-4500,1632,17316,-269,245,112
2547262,-4464,1544,17408,-258,250,82
2547274,-4700,1584,17276,-284,232,107
2547286,-4692,1616,17332,-244,244,128
2547298,-4500,1468,17280,-257,252,84
2547310,-4692,1544,17296,-238,269,115
2547322,-4624,1544,17324,-235,259,100
2547334,-4592,1636,17436,-253,225,95
2547352,-4616,1504,17396,-266,243,105
2547364,-4700,1588,17376,-247,246,115
2547376,-4700,1520,17388,-281,261,87
2547388,-4660,1524,17392,-263,238,93
2547400,-4620,1496,17292,-252,239,107
2547412,-4620,1524,17348,-254,250,91
2547424,-4680,1576,17336,-266,245,123
2547436,-4568,1572,17428,-265,239,105
2547448,-4512,1552,17376,-280,245,124
2547460,-4600,1608,17276,-282,238,106
2547478,-4716,1560,17300,-276,234,114
2547490,-4608,1564,17456,-273,251,90
2547502,-4708,1588,17288,-277,225,113
2547514,-4608,1604,17380,-232,252,111
2547526,-4660,1592,17468,-278,266,115
2547538,-4696,1656,17340,-250,254,96
2547550,-4688,1596,17284,-250,241,120
2547562,-4608,1540,17264,-272,275,100
2547574,-4620,1544,17440,-267,251,88
2547586,-4596,1576,17116,-248,286,117
2547602,-4620,1556,17256,-240,256,104
2547614,-4620,1576,17360,-278,262,86
2547626,-4612,1548,17388,-286,262,141
2547638,-4640,1572,17468,-265,234,113
2547650,-4624,1496,17380,-287,253,118
2547662,-4616,1532,17376,-290,230,108
2547674,-4672,1524,17376,-261,252,119
2547686,-4556,1544,17336,-279,245,94
2547698,-4652,1552,17288,-256,249,100
2547710,-4560,1588,17244,-259,235,94
2547728,-4616,1616,17324,-279,263,112
2547740,-4584,1720,17228,-276,261,92
2547752,-4660,1584,17316,-247,243,111
2547764,-4812,1580,17408,-278,276,124
2547776,-4752,1556,17304,-263,240,108
2547788,-4704,1524,17428,-234,232,76
2547800,-4636,1500,17300,-264,238,109
2547812,-4616,1524,17440,-270,235,112
2547824,-4540,1596,17224,-257,248,106
2547836,-4668,1508,17368,-243,268,104
2547854,-4564,1652,17336,-257,219,111
2547866,-4640,1580,17208,-288,249,111
2547878,-4616,1604,17300,-259,265,97
2547890,-4484,1612,17460,-277,253,106
2547902,-4636,1556,17448,-272,267,96
2547914,-4640,1548,17388,-251,247,105
2547926,-4592,1576,17300,-242,261,106
2547938,-4700,1480,17472,-252,250,100
2547950,-4660,1604,17332,-279,262,113
2547962,-4632,1584,17368,-280,224,123
2547980,-4596,1644,17228,-262,248,113
2547992,-4604,1552,17416,-270,260,94
2548004,-4632,1604,17396,-257,243,126
2548016,-4596,1488,17372,-279,254,106
2548028,-4600,1596,17464,-273,258,120
2548040,-4572,1580,17464,-283,274,74
2548052,-4588,1492,17420,-276,251,122
2548064,-4680,1608,17144,-263,247,104
2548076,-4692,1540,17464,-259,253,103
2548088,-4596,1644,17300,-246,223,89
2548104,-4612,1672,17344,-243,260,111
2548116,-4632,1576,17424,-293,239,96
2548128,-4580,1640,17436,-262,269,97
2548140,-4680,1616,17356,-262,267,87
2548152,-4648,1536,17388,-248,230,114
2548164,-4672,1608,17224,-261,235,105
2548176,-4672,1556,17388,-276,237,83
2548188,-4664,1596,17292,-268,259,129
2548200,-4660,1492,17420,-251,227,108
2548212,-4660,1640,17440,-276,251,67
2548230,-4496,1632,17292,-270,233,97
2548242,-4508,1660,17360,-240,256,98
2548254,-4592,1616,17412,-268,246,104
2548266,-4564,1560,17348,-258,268,113
2548278,-4564,1592,17348,-261,249,129
2548290,-4656,1560,17392,-267,233,102
2548302,-4668,1572,17416,-251,246,102
2548314,-4604,1508,17220,-265,234,95
2548326,-4576,1580,17268,-262,241,121
2548338,-4544,1524,17384,-266,267,130
2548356,-4736,1516,17252,-279,274,94
2548368,-4660,1656,17316,-255,236,125
2548380,-4692,1584,17464,-266,268,91
2548392,-4648,1668,17316,-284,272,108
2548404,-4604,1548,17324,-258,244,113
2548416,-4616,1536,17392,-259,247,79
2548428,-4632,1588,17232,-228,272,106
2548440,-4612,1528,17352,-253,268,103
2548452,-4552,1604,17432,-264,263,120
2548464,-4596,1576,17316,-269,246,101
2548482,-4592,1556,17532,-283,269,106
2548494,-4528,1592,17320,-247,253,85
2548506,-4600,1644,17440,-266,249,110
2548518,-4672,1520,17252,-255,247,127
2548530,-4556,1604,17436,-263,244,95
2548542,-4736,1608,17384,-251,279,70
2548554,-4528,1536,17348,-244,241,105
2548566,-4540,1624,17352,-246,239,123
2548578,-4576,1592,17484,-261,235,91
2548590,-4688,1512,17172,-257,255,99
2548606,-4656,1536,17280,-257,250,94
2548618,-4592,1608,17400,-248,259,101
2548630,-4672,1576,17260,-261,248,68
2548642,-4604,1600,17416,-266,236,122
2548654,-4648,1572,17272,-246,270,128
2548666,-4600,1612,17356,-267,260,73
2548678,-4588,1560,17372,-272,243,110
2548690,-4584,1656,17380,-271,227,89
2548702,-4568,1540,17360,-250,232,100
2548714,-4668,1512,17332,-242,261,112
2548732,-4620,1576,17388,-281,241,105
2548744,-4568,1520,17436,-261,265,104
2548756,-4576,1572,17384,-252,250,83
2548768,-4668,1548,17376,-264,263,101
2548780,-4592,1520,17400,-276,255,121
2548792,-4620,1500,17448,-259,228,111
2548804,-4660,1504,17284,-278,229,82
2548816,-4648,1560,17316,-255,242,84
2548828,-4616,1624,17280,-270,255,123
2548840,-4672,1532,17496,-275,251,107
2548858,-4528,1572,17404,-268,265,76
2548870,-4636,1504,17368,-264,243,110
2548882,-4692,1500,17360,-266,227,150
2548894,-4572,1600,17384,-274,260,84
2548906,-4712,1524,17384,-286,225,96
2548918,-4604,1536,17288,-254,240,113
2548930,-4616,1576,17340,-258,249,126
2548942,-4612,1648,17408,-257,260,107
2548954,-4688,1568,17320,-281,233,87
2548966,-4676,1612,17208,-273,232,99
2548993,-4636,1568,17328,-260,263,114
2549005,-4604,1648,17404,-268,233,108
2549017,-4648,1568,17400,-246,261,99
2549029,-4584,1564,17332,-262,251,107
2549041,-4664,1632,17332,-268,237,102
2549053,-4620,1604,17164,-280,235,101
2549065,-4460,1516,17260,-261,268,97
2549077,-4608,1612,17328,-279,233,74
2549089,-4592,1568,17264,-267,256,105
2549101,-4584,1568,17456,-278,249,81
2549117,-4568,1636,17336,-279,250,111
2549129,-4632,1524,17468,-263,239,107
2549141,-4732,1624,17412,-262,259,95
2549153,-4644,1572,17340,-260,251,99
2549165,-4600,1580,17288,-270,248,94
2549177,-4644,1500,17204,-272,262,79
2549189,-4640,1628,17452,-230,244,112
2549201,-4604,1604,17324,-279,272,98
2549213,-4608,1540,17400,-279,242,116
2549225,-4592,1660,17344,-261,257,108
2549243,-4608,1596,17336,-250,248,98
2549255,-4572,1580,17368,-277,258,94
2549267,-4524,1520,17408,-263,237,105
2549279,-4572,1540,17372,-267,245,115
2549291,-4668,1568,17192,-257,282,83
2549303,-4476,1544,17452,-271,243,107
2549315,-4660,1588,17488,-281,236,107
2549327,-4660,1596,17364,-270,254,109
2549339,-4660,1580,17396,-309,249,113
2549351,-4628,1604,17340,-276,246,101
2549369,-4628,1616,17396,-259,282,99
2549381,-4652,1552,17220,-254,275,100
2549393,-4560,1464,17256,-254,240,84
2549405,-4628,1448,17400,-287,233,110
2549417,-4640,1640,17300,-255,240,103
2549429,-4516,1548,17292,-269,239,123
2549441,-4520,1628,17292,-254,249,84
2549453,-4468,1496,17452,-260,228,125
2549465,-4548,1508,17444,-288,240,117
2549477,-4612,1512,17384,-251,250,87
2549495,-4616,1524,17428,-264,270,108
2549507,-4768,1676,17252,-246,257,116
2549519,-4544,1584,17348,-289,282,108
2549531,-4648,1536,17356,-289,249,95
2549543,-4712,1524,17384,-235,259,116
2549555,-4564,1568,17456,-265,229,104
2549567,-4596,1616,17380,-261,240,120
2549579,-4556,1624,17200,-277,238,79
2549591,-4632,1576,17252,-262,273,153
2549603,-4624,1612,17232,-279,254,87
2549619,-4584,1548,17484,-255,249,105
2549631,-4584,1568,17480,-243,253,82
2549643,-4592,1564,17304,-241,229,94
2549655,-4540,1608,17456,-241,240,113
2549667,-4556,1512,17332,-262,228,103
2549679,-4580,1496,17252,-300,261,99
2549691,-4588,1536,17432,-280,267,92
2549703,-4612,1616,17412,-252,246,92
2549715,-4476,1648,17232,-264,258,118
2549727,-4680,1592,17284,-278,260,117
2549745,-4512,1584,17360,-268,265,91
2549757,-4564,1584,17304,-256,261,111
2549769,-4616,1716,17328,-254,247,97
2549781,-4624,1588,17436,-242,228,103
2549793,-4564,1524,17336,-257,265,75
2549805,-4648,1524,17388,-282,243,115
2549817,-4500,1580,17404,-255,252,106
2549829,-4548,1592,17296,-260,249,118
2549841,-4516,1600,17384,-268,255,107
2549853,-4596,1652,17312,-270,222,86
2549871,-4532,1616,17400,-286,250,108
2549883,-4484,1556,17320,-267,276,119
2549895,-4736,1624,17328,-265,247,97
2549907,-4656,1584,17308,-242,232,107
2549919,-4664,1516,17452,-272,254,101
2549931,-4608,1540,17500,-260,228,95
2549943,-4716,1688,17304,-272,252,114
2549955,-4544,1468,17304,-285,243,110
2549967,-4524,1624,17356,-261,242,125
2549979,-4576,1520,17340,-280,269,82
2549997,-4656,1604,17412,-281,247,102
2550009,-4652,1676,17272,-284,239,129
2550021,-4596,1568,17292,-267,255,92
2550033,-4636,1588,17340,-257,248,98
2550045,-4596,1600,17248,-250,251,113
2550057,-4572,1560,17460,-272,266,107
2550069,-4624,1512,17336,-263,271,92
2550081,-4580,1596,17252,-247,251,115
2550093,-4560,1560,17324,-245,258,108
2550105,-4636,1528,17260,-269,264,130
2550121,-4576,1656,17404,-258,269,96
2550133,-4660,1684,17348,-264,277,108
2550145,-4652,1620,17428,-267,276,97
2550157,-4660,1612,17312,-247,242,91
2550169,-4688,1516,17496,-267,241,102
2550181,-4628,1560,17328,-277,242,116
2550193,-4660,1664,17496,-268,253,119
2550205,-4652,1564,17452,-250,226,77
2550217,-4516,1444,17308,-281,234,115
2550229,-4568,1544,17348,-279,247,124
2550247,-4604,1480,17392,-249,265,105
2550259,-4528,1508,17564,-253,253,81
2550271,-4580,1564,17352,-277,273,86
2550283,-4612,1564,17476,-280,279,123
2550294,-4560,1536,17312,-296,242,86
2550306,-4568,1620,17272,-267,269,102
2550318,-4708,1552,17348,-266,248,121
2550330,-4660,1636,17232,-258,242,90
2550342,-4560,1644,17244,-270,247,76
2550354,-4612,1564,17356,-265,222,113
2550372,-4600,1560,17332,-268,278,96
2550384,-4720,1616,17452,-276,253,89
2550396,-4620,1556,17340,-255,236,112
2550408,-4604,1632,17432,-272,232,118
2550420,-4668,1548,17292,-264,236,83
2550432,-4644,1588,17408,-283,258,89
2550444,-4620,1568,17328,-257,253,95
2550456,-4628,1508,17452,-256,257,109
2550468,-4540,1552,17376,-252,256,95
2550480,-4552,1536,17400,-252,254,113
2550498,-4520,1592,17264,-253,244,110
2550510,-4520,1508,17396,-293,236,107
2550522,-4616,1608,17316,-242,262,94
2550534,-4712,1504,17320,-268,239,118
2550546,-4596,1612,17304,-268,254,121
2550558,-4588,1604,17224,-260,252,119
2550570,-4696,1576,17428,-279,237,93
2550582,-4680,1648,17408,-258,252,103
2550594,-4616,1552,17436,-264,248,130
2550606,-4520,1548,17344,-256,238,110
2550622,-4496,1512,17416,-257,267,115
2550634,-4596,1644,17372,-270,251,112
2550646,-4624,1564,17352,-263,257,80
2550658,-4528,1480,17420,-263,245,95
2550670,-4608,1520,17472,-241,203,126
2550682,-4492,1592,17372,-260,251,134
2550694,-4684,1504,17424,-242,235,96
2550706,-4568,1608,17424,-252,246,95
2550718,-4608,1524,17504,-244,265,129
2550730,-4604,1560,17348,-254,257,134
2550748,-4600,1552,17212,-267,233,96
2550760,-4592,1596,17248,-253,238,93
2550772,-4516,1656,17236,-242,255,110
2550784,-4764,1572,17340,-269,208,102
2550796,-4708,1488,17308,-246,256,108
2550808,-4568,1660,17804,-260,240,98
2550820,-4560,1604,17608,-282,294,121
2550832,-4492,1616,17052,-250,286,105
2550844,-4504,1484,17132,-264,230,106
2550856,-4668,1552,17088,-287,211,109
2550874,-4692,1548,17484,-293,243,70
2550886,-4560,1596,17400,-233,252,114
2550898,-4596,1552,17420,-255,262,119
2550910,-4532,1632,17208,-281,282,126
2550922,-4548,1676,17412,-270,274,80
2550934,-4548,1588,17228,-287,235,73
2550946,-4488,1576,17484,-237,265,100
2550958,-4644,1556,17460,-252,236,115
2550969,-4632,1620,17332,-265,289,134
2550981,-4648,1576,17288,-286,258,133
2550999,-4644,1640,17564,-307,246,112
2551011,-4648,1680,17588,-253,244,105
2551023,-4668,1572,17316,-252,233,101
2551035,-4592,1612,17336,-255,240,109
2551047,-4520,1592,17264,-273,233,117
2551059,-4600,1572,17528,-268,254,104
2551071,-4692,1416,17552,-253,245,99
2551083,-4644,1620,17428,-266,258,79
2551095,-4644,1472,17368,-248,261,110
2551107,-4580,1524,17292,-258,263,111
2551125,-4492,1508,17284,-286,259,106
2551137,-4628,1624,17348,-263,257,114
2551149,-4648,1656,17444,-265,235,135
2551161,-4608,1776,17364,-280,268,116
2551173,-4620,1556,17392,-263,261,102
2551185,-4572,1584,17304,-250,244,109
2551197,-4572,1548,17356,-280,253,117
2551209,-4620,1528,17416,-256,271,126
2551221,-4636,1572,17456,-255,257,100
2551233,-4624,1584,17268,-245,232,77
2551249,-4648,1600,17244,-260,267,99
2551261,-4612,1580,17356,-272,244,116
2551273,-4568,1604,17380,-263,269,75
2551285,-4560,1576,17328,-260,273,87
2551297,-4540,1472,17332,-232,251,103
2551309,-4560,1668,17300,-225,276,127
2551321,-4580,1552,17332,-260,232,107
2551333,-4576,1564,17348,-269,255,99
2551345,-4600,1580,17572,-296,263,102
2551357,-4616,1656,17368,-274,238,96
2551375,-4484,1560,17352,-267,253,118
2551387,-4592,1552,17216,-269,249,109
2551399,-4612,1672,17412,-280,227,93
2551411,-4608,1720,17356,-283,242,83
2551423,-4660,1656,17520,-258,245,104
2551435,-4556,1548,17388,-266,252,68
2551447,-4588,1488,17376,-250,245,110
2551459,-4560,1576,17356,-272,260,99
2551471,-4720,1584,17344,-256,273,114
2551483,-4684,1524,17424,-249,278,115
2551501,-4508,1556,17484,-241,248,101
2551513,-4520,1588,17332,-280,258,117
2551525,-4564,1492,17316,-266,261,111
2551537,-4612,1624,17416,-264,229,101
2551549,-4588,1536,17460,-250,241,105
2551561,-4576,1524,17440,-259,237,98
2551573,-4668,1540,17260,-250,248,100
2551585,-4592,1592,17400,-267,267,101
2551597,-4576,1632,17456,-279,270,120
2551609,-4632,1620,17328,-256,264,83
2551627,-4588,1612,17408,-245,250,119
2551639,-4584,1572,17436,-250,235,98
2551651,-4624,1660,17480,-259,236,120
2551663,-4644,1556,17412,-260,248,89
2551675,-4560,1536,17372,-253,251,102
2551687,-4628,1588,17320,-252,248,107
2551699,-4540,1488,17348,-284,233,120
2551711,-4572,1540,17348,-265,266,96
2551723,-4632,1532,17184,-259,263,109
2551735,-4660,1604,17404,-295,259,97
2551751,-4664,1576,17504,-282,271,84
2551763,-4692,1588,17504,-233,258,115
2551775,-4636,1548,17408,-277,260,122
2551787,-4592,1576,17280,-274,251,78
2551799,-4588,1600,17376,-294,230,95
2551811,-4584,1544,17272,-267,270,97
2551823,-4568,1532,17492,-260,242,127
2551835,-4644,1652,17228,-245,256,88
2551847,-4660,1580,17248,-259,246,98
2551859,-4536,1580,17312,-268,283,100
2551877,-4596,1536,17476,-268,237,131
2551889,-4632,1620,17604,-247,259,127
2551901,-4616,1608,17404,-225,271,87
2551913,-4516,1452,17248,-272,236,107
2551925,-4520,1508,17208,-271,263,136
2551937,-4532,1516,17300,-276,256,103
2551949,-4600,1616,17440,-268,247,87
2551961,-4576,1560,17408,-265,278,91
2551973,-4480,1400,17296,-269,259,124
2551985,-4612,1528,17088,-246,225,110
2552003,-4600,1596,17388,-258,255,128
2552015,-4468,1596,17444,-274,263,122
2552027,-4568,1584,17452,-261,274,108
2552039,-4584,1600,17348,-274,249,79
2552051,-4612,1424,17152,-254,241,117
2552063,-4608,1508,17304,-281,263,112
2552075,-4676,1576,17444,-261,262,105
2552087,-4612,1608,17328,-277,253,93
2552099,-4624,1644,17416,-261,279,108
2552111,-4608,1544,17280,-275,258,114
2552129,-4692,1508,17296,-249,256,82
2552141,-4560,1596,17408,-296,264,99
2552153,-4644,1556,17476,-255,266,105
2552165,-4536,1552,17292,-247,271,111
2552177,-4564,1548,17276,-278,250,96
2552189,-4524,1604,17276,-290,267,113
2552201,-4680,1576,17472,-269,257,93
2552213,-4596,1636,17332,-253,255,118
2552225,-4648,1584,17448,-269,257,109
2552237,-4584,1536,17352,-236,227,129
2552253,-4664,1584,17260,-266,249,94
2552265,-4600,1484,17308,-256,232,100
2552277,-4624,1572,17416,-261,250,118
2552289,-4676,1500,17496,-252,241,111
2552301,-4620,1552,17356,-253,246,122
2552313,-4588,1520,17364,-242,243,91
2552325,-4572,1576,17356,-255,263,111
2552337,-4564,1588,17312,-263,262,92
2552349,-4536,1548,17496,-246,232,63
2552361,-4572,1468,17520,-246,273,103
2552379,-4528,1524,17224,-259,251,115
2552391,-4612,1496,17292,-268,259,124
2552403,-4608,1644,17344,-287,258,97
2552415,-4624,1600,17368,-256,256,115
2552427,-4632,1548,17444,-290,215,104
2552439,-4760,1668,17424,-246,253,107
2552451,-4588,1608,17272,-260,252,80
2552463,-4588,1580,17256,-258,266,115
2552475,-4560,1660,17364,-247,262,120
2552487,-4644,1568,17464,-264,249,99
2552505,-4552,1536,17348,-246,260,105
2552517,-4600,1560,17392,-272,246,114
2552529,-4520,1652,17404,-267,296,113
2552541,-4712,1528,17288,-277,236,105
2552553,-4556,1584,17360,-247,253,98
2552565,-4668,1596,17372,-261,248,115
2552577,-4688,1588,17292,-245,254,89
2552589,-4648,1500,17416,-267,266,123
2552601,-4680,1672,17264,-259,278,96
2552613,-4580,1620,17400,-248,246,112
2552631,-4632,1488,17348,-259,260,102
2552643,-4600,1528,17300,-270,245,103
2552655,-4656,1672,17280,-308,270,113
2552667,-4600,1644,17264,-258,241,117
2552679,-4648,1568,17400,-274,248,92
2552691,-4492,1624,17348,-284,245,112
2552703,-4616,1548,17340,-276,241,134
2552715,-4572,1476,17384,-259,233,111
2552727,-4572,1588,17236,-263,252,93
2552739,-4496,1600,17320,-272,237,132
2552755,-4604,1628,17512,-258,254,102
2552767,-4584,1520,17436,-262,263,99
2552779,-4668,1568,17316,-247,252,103
2552791,-4588,1480,17312,-275,250,114
2552803,-4656,1604,17304,-254,261,124
2552815,-4508,1580,17384,-242,261,107
2552826,-4576,1648,17388,-254,252,123
2552838,-4648,1656,17280,-259,232,128
2552850,-4672,1604,17260,-266,243,100
2552862,-4608,1568,17336,-250,261,115
2552880,-4704,1640,17296,-276,245,108
2552892,-4584,1656,17332,-262,264,111
2552904,-4572,1612,17276,-248,238,104
2552916,-4612,1584,17412,-273,254,100
2552928,-4652,1608,17520,-262,250,94
2552940,-4600,1588,17312,-265,250,89
2552952,-4728,1604,17304,-259,247,103
2552964,-4612,1620,17308,-263,253,119
2552976,-4528,1532,17292,-252,248,111
2552988,-4496,1556,17316,-286,239,102
2553006,-4620,1548,17268,-263,264,138
2553018,-4608,1536,17452,-274,264,112
2553030,-4548,1620,17472,-258,236,76
2553042,-4572,1528,17220,-243,228,105
2553054,-4612,1632,17216,-257,239,89
2553066,-4636,1544,17248,-263,249,124
2553078,-4680,1568,17444,-238,232,116
2553090,-4660,1648,17364,-264,233,84
2553102,-4584,1556,17264,-256,259,99
2553114,-4528,1552,17424,-256,241,121
2553132,-4560,1592,17412,-274,245,100
2553144,-4668,1604,17316,-252,251,80
2553156,-4720,1656,17404,-264,241,124
2553168,-4556,1508,17484,-268,259,91
2553180,-4524,1468,17324,-253,240,106
2553192,-4572,1592,17408,-276,261,111
2553204,-4560,1532,17248,-285,257,110
2553216,-4564,1576,17436,-265,236,100
2553228,-4560,1504,17240,-260,259,78
2553240,-4608,1568,17372,-257,235,87
2553256,-4548,1540,17360,-260,258,97
2553268,-4636,1552,17460,-273,262,128
2553280,-4620,1656,17304,-281,254,111
2553292,-4588,1524,17368,-280,251,72
2553304,-4608,1516,17348,-296,267,106
2553316,-4624,1580,17316,-244,242,84
2553328,-4680,1596,17312,-265,271,120
2553340,-4540,1592,17284,-259,249,98
2553352,-4668,1460,17404,-260,247,79
2553364,-4552,1500,17232,-255,253,125
2553382,-4496,1540,17324,-252,260,108
2553394,-4620,1596,17324,-273,270,126
2553406,-4588,1616,17268,-266,255,93
2553418,-4528,1512,17400,-244,247,108
2553430,-4644,1572,17408,-269,257,124
2553442,-4572,1592,17416,-256,262,93
2553454,-4632,1512,17360,-255,236,112
2553466,-4620,1636,17364,-256,264,133
2553478,-4672,1564,17320,-264,260,84
2553490,-4684,1588,17340,-248,272,102
2553508,-4680,1588,17316,-259,237,137
2553520,-4564,1584,17312,-262,253,145
2553532,-4592,1608,17280,-228,247,77
2553544,-4628,1568,17292,-268,266,89
2553556,-4596,1496,17376,-280,264,132
2553568,-4568,1500,17332,-273,234,88
2553580,-4628,1528,17360,-256,261,110
2553592,-4588,1488,17472,-245,279,102
2553604,-4572,1648,17284,-241,262,115
2553616,-4588,1536,17432,-275,252,122
2553634,-4600,1712,17476,-282,272,96
2553646,-4652,1600,17340,-254,255,128
2553658,-4684,1564,17296,-272,249,129
2553670,-4560,1624,17348,-267,253,96
2553682,-4624,1620,17388,-240,272,97
2553694,-4612,1596,17280,-261,265,109
2553706,-4484,1536,17344,-264,243,105
2553718,-4612,1572,17348,-263,237,89
2553730,-4592,1592,17368,-274,260,96
2553742,-4728,1540,17340,-249,247,103
2553758,-4608,1660,17260,-248,264,98
2553770,-4572,1572,17232,-239,266,103
2553782,-4604,1592,17344,-266,253,115
2553794,-4548,1508,17260,-253,252,96
2553806,-4552,1608,17384,-260,263,111
2553818,-4528,1624,17392,-274,249,121
2553830,-4616,1620,17332,-275,275,110
2553842,-4548,1636,17376,-258,249,105
2553854,-4560,1616,17496,-269,255,66
2553866,-4576,1500,17252,-262,247,118
2553884,-4564,1512,17332,-271,240,103
2553896,-4584,1560,17480,-278,255,99
2553908,-4568,1528,17372,-268,234,120
2553920,-4652,1556,17404,-250,255,103
2553932,-4636,1580,17344,-263,241,120
2553944,-4584,1584,17328,-279,241,100
2553956,-4488,1552,17448,-288,256,91
2553968,-4532,1488,17484,-283,268,125
2553980,-4668,1576,17384,-256,259,103
2553992,-4644,1648,17348,-265,271,80
2554010,-4616,1560,17424,-264,273,80
2554022,-4492,1600,17248,-250,235,122
2554034,-4612,1604,17292,-257,261,79
2554046,-4636,1528,17328,-254,253,96
2554058,-4596,1612,17360,-274,258,101
2554070,-4548,1584,17376,-260,251,113
2554082,-4640,1556,17348,-264,290,103
2554094,-4656,1548,17376,-285,249,169
2554106,-4584,1524,17300,-260,242,123
2554118,-4560,1580,17404,-271,288,115
2554136,-4616,1552,17348,-252,259,94
2554148,-4588,1596,17404,-258,251,96
2554160,-4688,1668,17432,-256,251,81
2554172,-4572,1584,17236,-250,239,66
2554184,-4636,1736,17444,-244,242,97
2554196,-4552,1540,17360,-273,257,119
2554208,-4704,1624,17416,-285,253,106
2554220,-4596,1612,17352,-272,233,90
2554232,-4560,1588,17188,-255,278,92
2554244,-4548,1644,17352,-243,286,100
2554260,-4564,1644,17336,-273,278,79
2554272,-4704,1576,17316,-224,243,86
2554284,-4528,1608,17388,-258,232,132
2554296,-4564,1584,17236,-248,239,101
2554308,-4732,1596,17352,-271,249,107
2554320,-4552,1560,17364,-247,245,99
2554332,-4572,1548,17412,-255,241,116
2554344,-4620,1580,17288,-262,252,111
2554356,-4592,1496,17368,-265,259,89
2554368,-4712,1616,17176,-260,232,71
2554386,-4604,1648,17348,-253,243,132
2554398,-4544,1600,17468,-263,255,109
2554410,-4544,1540,17416,-270,237,79
2554422,-4616,1596,17300,-266,249,111
2554434,-4580,1540,17324,-263,240,92
2554446,-4652,1508,17340,-300,250,98
2554458,-4600,1632,17284,-267,251,81
2554470,-4656,1588,17312,-292,240,97
2554482,-4560,1604,17424,-259,250,105
2554494,-4616,1648,17300,-264,241,85
2554512,-4632,1640,17496,-262,264,102
2554524,-4616,1548,17340,-288,278,102
2554536,-4656,1560,17380,-247,250,115
2554548,-4736,1560,17328,-253,244,112
2554560,-4592,1656,17424,-274,268,81
2554572,-4572,1584,17408,-278,259,120
2554584,-4640,1568,17340,-233,235,91
2554596,-4676,1564,17328,-272,277,114
2554608,-4712,1580,17232,-274,250,100
2554620,-4556,1556,17492,-263,253,132
2554638,-4632,1508,17260,-254,252,109
2554650,-4500,1604,17288,-270,250,93
2554662,-4636,1588,17408,-275,260,91
2554674,-4600,1568,17284,-256,255,102
2554686,-4644,1556,17348,-275,283,94
2554698,-4612,1568,17308,-286,246,85
2554710,-4540,1532,17440,-268,235,100
2554722,-4564,1660,17412,-269,260,93
2554734,-4612,1536,17340,-266,235,105
2554746,-4560,1616,17232,-270,265,102
2554762,-4660,1568,17428,-298,258,104
2554774,-4536,1592,17344,-280,244,103
2554786,-4608,1424,17460,-288,267,91
2554798,-4568,1520,17452,-258,274,75
2554810,-4660,1560,17416,-253,260,94
2554822,-4660,1552,17460,-275,256,85
2554834,-4616,1588,17412,-249,241,122
2554846,-4532,1452,17516,-281,234,123
2554858,-4500,1572,17356,-252,263,103
2554870,-4580,1484,17428,-273,262,92
2554888,-4656,1540,17244,-254,236,117
2554900,-4596,1552,17372,-286,237,86
2554912,-4520,1668,17408,-282,242,102
2554924,-4576,1576,17264,-253,246,116
2554936,-4620,1540,17472,-274,231,106
2554948,-4628,1556,17380,-257,243,104
2554960,-4528,1544,17340,-262,239,68
2554972,-4568,1664,17352,-262,248,110
2554984,-4556,1556,17440,-257,258,142
2554996,-4652,1604,17300,-253,250,110
2555014,-4608,1592,17384,-269,270,107
2555026,-4696,1584,17344,-269,238,107
2555038,-4536,1544,17500,-277,224,92
2555050,-4572,1596,17312,-250,233,109
2555062,-4588,1556,17176,-281,266,88
2555074,-4700,1624,17180,-269,253,136
2555086,-4680,1608,17472,-260,243,83
2555098,-4620,1568,17428,-282,250,126
2555110,-4548,1616,17280,-280,249,102
2555122,-4560,1580,17260,-265,234,108
2555140,-4648,1548,17264,-253,255,83
2555152,-4576,1524,17432,-276,258,116
2555164,-4688,1472,17340,-251,240,85
2555176,-4528,1464,17372,-275,238,113
2555188,-4572,1576,17504,-258,271,104
2555200,-4660,1560,17488,-260,268,88
2555212,-4680,1532,17312,-265,254,113
2555224,-4616,1504,17376,-271,228,109
2555236,-4644,1516,17264,-243,252,83
2555248,-4584,1596,17316,-265,244,88
2555264,-4512,1648,17384,-274,274,99
2555276,-4620,1560,17320,-282,258,90
2555288,-4628,1568,17432,-267,260,112
2555300,-4684,1648,17228,-258,239,100
2555312,-4596,1572,17396,-273,239,101
2555324,-4568,1624,17516,-270,263,103
2555336,-4660,1576,17292,-261,267,103
2555348,-4564,1564,17280,-258,235,104
2555360,-4660,1652,17424,-275,275,109
2555372,-4636,1692,17288,-255,268,104
2555390,-4584,1564,17416,-271,252,122
2555402,-4592,1640,17400,-256,284,116
2555414,-4580,1604,17468,-259,243,98
2555426,-4552,1672,17308,-268,235,122
2555438,-4544,1544,17304,-260,223,109
2555450,-4644,1636,17256,-257,235,95
2555462,-4536,1588,17420,-284,263,97
2555474,-4632,1484,17364,-270,252,95
2555486,-4664,1492,17312,-261,258,117
2555498,-4628,1588,17304,-284,241,105
2555516,-4556,1632,17320,-254,237,111
2555528,-4584,1560,17300,-263,252,101
2555540,-4616,1616,17352,-262,234,104
2555552,-4612,1592,17380,-288,232,103
2555564,-4600,1556,17364,-273,245,107
2555576,-4508,1616,17452,-258,251,135
2555588,-4632,1580,17424,-247,244,114
2555600,-4600,1568,17272,-274,251,74
2555612,-4632,1624,17308,-269,248,74
2555624,-4676,1520,17392,-246,285,115
2555642,-4636,1552,17312,-265,257,128
2555654,-4612,1752,17316,-277,239,88
2555666,-4508,1532,17340,-266,256,73
2555678,-4584,1512,17264,-245,270,130
2555690,-4492,1532,17148,-242,241,98
2555702,-4572,1548,17408,-256,237,100
2555714,-4588,1444,17424,-249,244,92
2555726,-4652,1564,17320,-247,257,107
2555738,-4688,1580,17380,-236,269,115
2555750,-4672,1628,17364,-263,251,100
2555766,-4620,1524,17476,-275,253,107
2555778,-4528,1492,17352,-274,253,94
2555790,-4492,1592,17468,-251,243,104
2555802,-4528,1552,17340,-274,242,92
2555814,-4604,1524,17336,-267,241,88
2555826,-4604,1480,17220,-245,257,115
2555838,-4632,1548,17192,-278,231,103
2555850,-4552,1604,17648,-282,244,103
2555862,-4604,1472,17344,-257,271,104
2555874,-4528,1496,17308,-265,242,112
2555892,-4860,1348,16888,-234,177,108
2555904,-4612,1488,17416,-258,210,71
2555916,-4420,1632,17524,-286,286,118
2555928,-4664,1576,17128,-270,258,138
2555940,-4564,1656,17264,-267,239,73
2555952,-4520,1660,17408,-289,273,89
2555964,-4752,1508,17020,-267,209,103
2555976,-4584,1540,17428,-241,217,91
2555988,-4524,1616,17368,-256,249,131
2556000,-4560,1524,17372,-249,262,115
2556018,-4512,1584,17464,-275,280,92
2556030,-4644,1536,17380,-243,248,125
2556042,-4604,1624,17340,-259,242,103
2556054,-4600,1652,17412,-254,257,83
2556066,-4552,1564,17256,-240,237,87
2556078,-4640,1508,17384,-262,252,107
2556090,-4552,1600,17296,-250,226,134
2556102,-4544,1572,17296,-273,267,107
2556114,-4676,1648,17296,-270,243,113
2556126,-4580,1612,17216,-266,254,135
2556144,-4476,1644,17256,-260,287,78
2556156,-4556,1656,18144,-342,488,193
2556168,-5176,1444,17032,-251,214,229
2556180,-5232,1276,16936,-192,-36,27
2556192,-3720,2060,18136,-336,527,146
2556204,-4864,1520,17060,-281,201,117
2556216,-4560,1612,17408,-257,190,47
2556228,-4384,1804,17980,-297,409,155
2556240,-4876,1440,16968,-256,226,144
2556252,-4636,1508,17000,-219,150,70
2556268,-4528,1616,17556,-237,258,87
2556280,-4568,1560,17320,-281,306,130
2556292,-4796,1584,17200,-264,151,132
2556304,-4560,1664,17536,-249,250,93
2556316,-4560,1644,17484,-299,291,103
2556328,-4692,1540,17360,-254,218,99
2556340,-4560,1632,17416,-231,287,103
2556352,-4608,1596,17292,-287,261,137
2556364,-4724,1536,17204,-240,241,106
2556376,-4540,1568,17452,-256,252,110
2556394,-4592,1512,17276,-267,212,120
2556406,-4676,1560,17252,-258,245,101
2556418,-4584,1628,17504,-283,287,91
2556430,-4552,1576,17412,-235,259,124
2556442,-4616,1572,17436,-239,240,128
2556454,-4536,1656,17388,-270,232,105
2556466,-4552,1616,17276,-266,251,95
2556478,-4640,1616,17356,-240,256,111
2556490,-4600,1516,17376,-276,263,99
2556502,-4636,1572,17396,-268,255,85
2556520,-4708,1500,17336,-256,251,80
2556532,-4712,1512,17252,-275,256,120
2556544,-4568,1660,17216,-267,247,100
2556556,-4632,1592,17348,-274,260,129
2556568,-4576,1588,17316,-263,281,96
2556580,-4704,1592,17376,-242,258,110
2556592,-4600,1548,17316,-264,234,137
2556604,-4472,1620,17464,-291,243,100
2556616,-4612,1552,17468,-266,237,103
2556628,-4588,1528,17312,-274,250,107
2556646,-4648,1624,17436,-259,250,108
2556658,-4560,1600,17448,-243,267,100
2556670,-4632,1552,17240,-264,260,82
2556682,-4512,1612,17372,-254,238,90
2556694,-4540,1548,17380,-256,283,122
2556706,-4592,1684,17344,-271,246,78
2556718,-4540,1540,17252,-245,234,99
2556730,-4636,1568,17424,-279,244,87
2556742,-4636,1584,17380,-266,242,120
2556754,-4576,1576,17268,-270,253,87
2556770,-4756,1528,17232,-260,258,68
2556782,-4604,1644,17300,-260,256,113
2556794,-4688,1512,17380,-263,261,97
2556806,-4580,1544,17456,-267,231,94
2556818,-4580,1648,17416,-257,272,120
2556830,-4616,1692,17284,-296,245,109
2556842,-4656,1600,17480,-264,237,108
2556854,-4544,1540,17344,-270,232,94
2556866,-4560,1576,17316,-249,263,97
2556878,-4636,1564,17260,-293,260,117
2556896,-4596,1528,17416,-275,259,92
2556908,-4644,1632,17392,-246,239,116
2556920,-4536,1560,17356,-264,256,92
2556932,-4604,1604,17408,-286,255,108
2556944,-4656,1576,17264,-262,259,125
2556956,-4656,1576,17436,-250,260,89
2556968,-4608,1624,17280,-283,239,123
2556980,-4636,1592,17444,-286,249,99
2556992,-4584,1544,17232,-298,267,106
2557004,-4508,1644,17192,-274,226,117
2557022,-4664,1564,17328,-267,264,94
2557034,-4576,1560,17436,-280,262,84
2557046,-4640,1460,17352,-242,238,89
2557058,-4572,1488,17400,-274,245,96
2557070,-4552,1520,17348,-243,261,104
2557082,-4516,1540,17296,-280,264,102
2557094,-4540,1628,17468,-282,256,98
2557106,-4580,1572,17324,-248,259,126
2557118,-4528,1508,17228,-249,271,103
2557130,-4632,1540,17320,-267,241,103
2557148,-4572,1548,17428,-255,270,102
2557160,-4520,1576,17340,-254,259,98
2557172,-4636,1540,17312,-250,261,102
2557184,-4624,1584,17280,-256,227,95
2557196,-4640,1508,17472,-268,237,87
2557208,-4604,1668,17368,-259,214,80
2557220,-4596,1644,17260,-261,248,107
2557232,-4568,1536,17444,-268,253,135
2557244,-4528,1540,17400,-255,233,111
2557256,-4624,1672,17408,-303,259,91
2557272,-4652,1572,17448,-258,249,138
2557284,-4612,1568,17324,-245,254,110
2557296,-4724,1540,17360,-264,247,117
2557308,-4652,1540,17248,-266,264,97
2557320,-4568,1492,17352,-263,244,79
2557332,-4456,1516,17344,-276,263,96
2557344,-4564,1520,17500,-260,230,92
2557356,-4500,1608,17500,-295,251,111
2557368,-4500,1608,17516,-250,244,109
2557380,-4576,1704,17384,-259,266,111
2557398,-4576,1488,17248,-266,247,97
2557410,-4660,1544,17412,-279,246,132
2557422,-4688,1588,17276,-292,243,96
2557434,-4684,1492,17428,-271,235,104
2557446,-4616,1704,17524,-254,258,127
2557458,-4632,1480,17296,-256,257,108
2557470,-4648,1572,17380,-248,231,105
2557482,-4612,1656,17292,-269,265,97
2557494,-4596,1592,17312,-262,228,117
2557506,-4616,1540,17488,-265,238,89
2557534,-4596,1580,17352,-273,240,122
2557546,-4536,1484,17292,-257,245,85
2557558,-4636,1528,17316,-259,251,111
2557570,-4508,1572,17332,-255,264,85
2557582,-4572,1484,17456,-238,241,101
2557594,-4584,1456,17424,-270,265,107
2557606,-4520,1520,17428,-240,259,84
2557618,-4604,1552,17288,-262,260,123
2557630,-4560,1648,17504,-265,244,105
2557642,-4560,1584,17288,-268,272,89
2557662,-4596,1512,17272,-269,227,86
2557674,-4616,1632,17440,-260,236,85
2557686,-4600,1532,17300,-284,222,89
2557698,-4728,1612,17284,-249,230,116
2557710,-4632,1580,17216,-249,245,122
2557722,-4588,1564,17416,-251,236,100
2557734,-4568,1596,17360,-288,245,101
2557746,-4560,1548,17360,-251,277,155
2557758,-4580,1624,17380,-263,273,111
2557770,-4444,1512,17340,-250,284,69
2557788,-4536,1612,17276,-274,264,94
2557800,-4536,1492,17300,-294,233,106
2557812,-4636,1500,17320,-254,235,84
2557824,-4620,1436,17364,-269,258,103
2557836,-4508,1500,17316,-292,251,94
2557848,-4600,1564,17376,-270,254,80
2557860,-4620,1584,17408,-276,278,95
2557872,-4584,1524,17372,-277,268,87
2557884,-4624,1588,17332,-258,256,109
2557896,-4720,1636,17368,-244,233,108
2557912,-4684,1480,17156,-252,256,120
2557924,-4732,1528,17284,-254,282,101
2557936,-4704,1548,17420,-277,230,82
2557948,-4724,1432,17344,-260,222,120
2557960,-4476,1556,17292,-229,269,116
2557972,-4500,1532,17372,-260,265,117
2557984,-4552,1456,17336,-252,249,107
2557996,-4580,1600,17348,-256,265,90
2558008,-4572,1604,17220,-280,246,113
2558020,-4592,1492,17364,-239,248,117
2558038,-4508,1580,17216,-262,267,82
2558050,-4636,1524,17268,-266,242,106
2558062,-4576,1492,17500,-269,225,112
2558074,-4624,1580,17516,-251,258,102
2558086,-4696,1476,17300,-279,269,75
2558098,-4676,1724,17424,-254,255,105
2558110,-4588,1704,17416,-256,226,109
2558122,-4636,1656,17476,-257,245,119
2558134,-4592,1604,17280,-249,230,98
2558146,-4576,1596,17364,-248,242,99
2558164,-4652,1408,17332,-285,256,103
2558176,-4552,1448,17336,-261,285,117
2558188,-4560,1536,17356,-241,232,84
2558200,-4520,1504,17360,-254,222,108
2558212,-4580,1616,17368,-275,253,122
2558224,-4628,1512,17304,-281,246,117
2558236,-4544,1564,17440,-259,246,89
2558248,-4584,1608,17372,-262,259,101
2558260,-4544,1504,17328,-276,249,101
2558272,-4596,1624,17360,-269,272,134
2558290,-4708,1472,17156,-274,248,110
2558302,-4632,1576,17292,-244,246,104
2558314,-4564,1644,17324,-268,264,81
2558326,-4584,1556,17448,-254,253,98
2558338,-4584,1628,17428,-280,255,113
2558350,-4556,1644,17308,-232,265,115
2558362,-4692,1752,17336,-265,251,117
2558374,-4660,1552,17392,-265,237,95
2558386,-4504,1552,17436,-276,259,98
2558398,-4576,1576,17336,-269,225,107
2558414,-4560,1476,17496,-226,234,125
2558426,-4596,1552,17364,-278,219,100
2558438,-4596,1588,17396,-263,248,78
2558450,-4540,1568,17300,-248,258,113
2558462,-4544,1704,17368,-268,246,79
2558474,-4692,1596,17316,-253,243,128
2558486,-4520,1676,17376,-263,252,86
2558498,-4608,1588,17368,-284,233,103
2558510,-4508,1588,17324,-273,241,111
2558522,-4584,1544,17316,-273,271,106
2558540,-4596,1576,17320,-274,245,102
2558552,-4664,1540,17428,-282,293,90
2558564,-4488,1584,17412,-238,238,120
2558576,-4660,1560,17380,-254,270,95
2558588,-4676,1524,17440,-258,252,103
2558600,-4580,1636,17416,-261,251,102
2558612,-4632,1512,17312,-252,233,116
2558624,-4592,1652,17396,-237,245,119
2558636,-4620,1588,17380,-266,249,98
2558648,-4644,1580,17344,-279,261,88
2558666,-4576,1544,17380,-254,258,89
2558678,-4584,1448,17400,-280,254,137
2558690,-4580,1560,17368,-276,241,96
2558702,-4672,1544,17308,-259,265,116
2558714,-4592,1624,17436,-245,293,77
2558726,-4608,1536,17260,-288,237,94
2558738,-4688,1564,17360,-264,227,124
2558750,-4704,1576,17264,-289,252,111
2558762,-4632,1612,17340,-258,246,118
2558774,-4568,1560,17428,-273,271,106
2558792,-4644,1536,17400,-259,250,121
2558804,-4496,1596,17436,-274,257,133
2558816,-4616,1636,17500,-268,231,79
2558828,-4640,1528,17348,-271,237,76
2558840,-4588,1604,17360,-264,242,92
2558852,-4540,1528,17176,-279,264,122
2558864,-4572,1620,17212,-258,229,104
2558876,-4612,1600,17328,-269,277,105
2558888,-4592,1556,17384,-254,259,127
2558900,-4668,1552,17388,-279,231,101
2558916,-4748,1592,17312,-263,225,102
2558928,-4596,1672,17300,-255,236,99
2558940,-4684,1580,17420,-274,268,108
2558952,-4672,1656,17416,-252,245,86
2558964,-4596,1616,17492,-278,249,90
2558976,-4616,1564,17232,-285,272,123
2558988,-4668,1620,17384,-245,259,120
2559000,-4648,1464,17232,-252,250,74
2559012,-4676,1452,17296,-286,221,103
2559024,-4596,1508,17372,-248,260,93
2559042,-4600,1556,17256,-284,262,108
2559054,-4596,1532,17392,-249,243,103
2559066,-4496,1616,17452,-267,251,117
2559078,-4624,1596,17356,-274,262,107
2559090,-4644,1580,17360,-240,240,109
2559102,-4532,1596,17380,-251,255,78
2559114,-4624,1564,17408,-252,249,105
2559126,-4636,1512,17476,-259,246,108
2559138,-4616,1636,17400,-272,237,86
2559150,-4552,1580,17432,-275,272,105
2559168,-4572,1548,17312,-247,256,119
2559180,-4552,1612,17352,-267,234,100
2559192,-4628,1628,17484,-290,245,125
2559204,-4600,1620,17424,-266,241,121
2559216,-4592,1520,17428,-235,259,95
2559228,-4520,1560,17360,-242,251,125
2559240,-4672,1624,17224,-265,268,107
2559252,-4620,1540,17236,-251,252,109
2559264,-4596,1536,17180,-284,233,94
2559276,-4596,1616,17320,-258,225,83
2559294,-4528,1624,17428,-266,246,106
2559306,-4612,1580,17440,-261,261,96
2559318,-4584,1652,17312,-278,241,108
2559330,-4596,1500,17376,-274,245,117
2559342,-4588,1512,17260,-277,246,146
2559354,-4676,1648,17256,-256,238,101
2559366,-4620,1544,17372,-276,243,100
2559378,-4672,1524,17280,-277,264,87
2559390,-4584,1572,17380,-286,236,85
2559402,-4616,1492,17472,-267,226,114
2559418,-4548,1624,17308,-285,247,110
2559430,-4540,1492,17312,-265,254,109
2559442,-4564,1628,17156,-272,246,107
2559454,-4660,1636,17408,-264,246,108
2559466,-4628,1560,17248,-286,246,103
2559478,-4712,1548,17224,-280,267,120
2559490,-4560,1548,17276,-246,261,89
2559502,-4632,1584,17388,-274,255,100
2559514,-4520,1600,17328,-251,244,125
2559526,-4600,1520,17380,-265,227,107
2559544,-4596,1548,17356,-238,267,114
2559556,-4656,1532,17344,-263,254,94
2559568,-4696,1504,17248,-266,220,129
2559580,-4560,1476,17316,-266,247,105
2559592,-4612,1452,17452,-273,251,102
2559604,-4564,1616,17464,-231,259,117
2559616,-4592,1620,17264,-274,243,110
2559628,-4588,1520,17224,-266,246,117
2559640,-4692,1588,17316,-263,214,127
2559652,-4580,1588,17376,-259,263,103
2559670,-4672,1556,17348,-255,264,79
2559682,-4592,1588,17412,-272,231,99
2559694,-4576,1496,17360,-263,263,102
2559706,-4604,1628,17388,-266,235,131
2559718,-4584,1544,17412,-265,255,131
2559730,-4756,1648,17216,-271,234,103
2559742,-4444,1564,17612,-262,282,100
2559754,-4620,1408,17276,-237,265,84
2559766,-4672,1476,17656,-256,244,80
2559778,-4624,1580,17252,-273,235,107
2559796,-4648,1612,17516,-269,240,135
2559808,-4532,1548,17516,-250,291,109
2559820,-4620,1556,17400,-268,220,97
2559832,-4692,1500,17276,-265,262,87
2559844,-4528,1600,17516,-246,251,103
2559856,-4524,1536,17152,-267,270,93
2559868,-4596,1508,17332,-244,239,104
2559880,-4584,1624,17416,-267,255,95
2559892,-4620,1520,17396,-265,243,115
2559904,-4580,1612,17176,-254,264,111
2559920,-4640,1524,17228,-272,245,124
2559932,-4624,1504,17372,-262,222,101
2559944,-4620,1508,17328,-261,272,122
2559956,-4584,1472,17520,-273,254,102
2559968,-4548,1560,17300,-254,265,108
2559980,-4584,1600,17308,-271,271,118
2559992,-4544,1544,17360,-258,233,108
2560004,-4700,1684,17340,-290,213,69
2560016,-4540,1580,17508,-276,268,132
2560028,-4604,1440,17080,-290,246,106
2560046,-4512,1620,17764,-271,327,107
2560058,-4740,1436,16972,-291,252,103
2560070,-4712,1608,17260,-251,224,84
2560082,-4624,1636,17552,-251,258,116
2560094,-4652,1564,17244,-284,271,89
2560106,-4636,1552,17404,-273,233,93
2560118,-4664,1592,17620,-275,254,98
2560130,-4472,1564,17148,-272,259,113
2560142,-4552,1564,17464,-258,225,89
2560154,-4580,1556,17364,-264,243,104
2560172,-4680,1576,17452,-262,253,115
2560184,-4584,1496,17480,-240,246,112
2560196,-4620,1572,17608,-292,248,97
2560208,-4676,1548,17296,-257,247,110
2560220,-4596,1568,17308,-263,259,120
2560232,-4688,1676,17212,-256,231,128
2560244,-4628,1584,17128,-269,245,108
2560256,-4632,1592,17416,-275,276,135
2560268,-4596,1548,17248,-269,243,124
2560280,-4576,1536,17324,-279,249,71
2560298,-4708,1552,17436,-269,248,99
2560310,-4556,1664,17116,-266,260,130
2560322,-4540,1584,17564,-273,252,120
2560334,-4648,1568,17220,-235,252,93
2560346,-4516,1616,17372,-268,261,91
2560358,-4548,1608,17340,-279,245,107
2560370,-4612,1568,17264,-237,251,111
2560382,-4592,1540,17324,-260,267,94
2560394,-4660,1512,17424,-272,254,95
2560406,-4528,1548,17356,-252,244,104
2560422,-4644,1688,17348,-269,246,108
2560434,-4628,1568,17368,-281,250,123
2560446,-4640,1596,17292,-283,279,90
2560458,-4636,1608,17332,-264,268,103
2560470,-4572,1624,17412,-241,260,91
2560482,-4544,1596,17420,-285,248,101
2560494,-4576,1560,17504,-266,246,141
2560506,-4692,1600,17384,-258,254,96
2560518,-4552,1588,17440,-241,255,93
2560530,-4588,1592,17504,-248,245,120
2560548,-4548,1548,17476,-245,235,105
2560560,-4516,1560,17316,-274,258,69
2560572,-4580,1536,17360,-262,274,102
2560584,-4536,1540,17328,-291,239,104
2560596,-4636,1552,17368,-282,260,105
2560608,-4672,1612,17464,-274,253,74
2560620,-4572,1616,17144,-255,239,97
2560632,-4544,1624,17244,-276,245,124
2560644,-4496,1564,17436,-265,265,86
2560656,-4548,1480,17276,-290,265,95
2560674,-4568,1580,17368,-297,255,108
2560686,-4624,1632,17468,-262,267,111
2560698,-4500,1600,17228,-280,249,101
2560710,-4620,1560,17364,-254,257,115
2560722,-4540,1512,17388,-249,238,106
2560734,-4548,1596,17332,-285,259,128
2560746,-4704,1596,17332,-239,242,98
2560758,-4588,1556,17328,-258,216,114
2560770,-4512,1544,17436,-278,265,92
2560782,-4600,1592,17348,-258,237,105
2560800,-4636,1644,17404,-248,255,104
2560812,-4672,1636,17356,-258,247,101
2560824,-4540,1528,17380,-278,253,110
2560836,-4552,1520,17408,-248,242,91
2560848,-4544,1624,17460,-278,264,113
2560860,-4652,1592,17444,-259,260,109
2560871,-4516,1556,17228,-263,247,103
2560883,-4532,1500,17372,-283,252,105
2560895,-4544,1596,17368,-296,257,116
2560907,-4584,1628,17396,-264,253,130
2560923,-4672,1652,17264,-280,262,116
2560935,-4536,1540,17352,-263,256,133
2560947,-4584,1596,17356,-230,255,113
2560959,-4608,1580,17344,-267,232,113
2560971,-4576,1500,17336,-259,233,101
2560983,-4564,1564,17344,-270,249,97
2560995,-4596,1540,17368,-262,260,93
2561007,-4552,1608,17500,-270,250,102
2561019,-4604,1544,17508,-266,266,128
2561031,-4572,1664,17392,-242,267,105
2561049,-4532,1616,17356,-278,244,106
2561061,-4656,1564,17360,-267,278,101
2561073,-4620,1560,17444,-264,234,116
2561085,-4636,1500,17448,-291,239,129
2561096,-4572,1536,17388,-261,243,84
2561108,-4640,1568,17352,-255,266,99
2561120,-4596,1600,17372,-247,245,100
2561132,-4596,1544,17268,-254,260,104
2561144,-4592,1608,17476,-281,231,86
2561156,-4592,1496,17216,-267,256,104
2561174,-4600,1544,17448,-282,259,121
2561186,-4600,1532,17356,-276,255,83
2561198,-4588,1656,17480,-268,263,82
2561210,-4680,1492,17708,-276,260,128
2561222,-4664,1620,17400,-265,230,111
2561234,-4612,1584,17284,-271,219,104
2561246,-4584,1572,17388,-270,250,119
2561258,-4576,1588,17408,-286,239,100
2561270,-4576,1528,17448,-256,239,87
2561282,-4628,1620,17228,-246,259,103
2561300,-4668,1548,17344,-271,255,119
2561313,-4700,1552,17456,-292,227,139
2561325,-4664,1596,17444,-242,266,103
2561337,-4480,1504,17416,-281,262,87
2561349,-4660,1512,17512,-272,261,97
2561361,-4504,1520,17436,-258,251,108
2561373,-4520,1520,17420,-290,263,89
2561385,-4560,1628,17320,-272,251,71
2561397,-4636,1568,17376,-258,271,78
2561409,-4520,1588,17352,-247,258,90
2561425,-4624,1528,17508,-277,249,103
2561437,-4628,1508,17324,-294,247,96
2561449,-4556,1584,17356,-280,258,108
2561461,-4604,1608,17256,-272,260,123
2561473,-4652,1596,17348,-251,267,104
2561485,-4536,1576,17400,-293,243,112
2561497,-4636,1680,17332,-283,251,103
2561509,-4604,1596,17356,-282,268,75
2561521,-4616,1580,17420,-278,250,102
2561533,-4628,1564,17324,-261,258,135
2561551,-4564,1556,17392,-268,254,118
2561563,-4624,1636,17440,-252,260,132
2561575,-4636,1556,17436,-279,232,94
2561587,-4592,1624,17324,-274,236,117
2561599,-4596,1556,17372,-267,262,111
2561611,-4596,1532,17348,-260,261,87
2561623,-4596,1552,17508,-264,251,85
2561635,-4572,1612,17416,-286,257,104
2561647,-4596,1584,17324,-274,274,108
2561659,-4596,1672,17348,-245,260,91
2561677,-4672,1588,17412,-282,237,117
2561689,-4528,1628,17208,-252,276,81
2561701,-4584,1532,17284,-276,249,94
2561713,-4556,1592,17308,-280,239,121
2561725,-4528,1572,17288,-265,269,115
2561737,-4644,1516,17344,-268,258,92
2561749,-4676,1620,17400,-268,275,90
2561761,-4540,1516,17316,-263,237,93
2561773,-4632,1560,17332,-299,261,113
2561785,-4560,1552,17252,-253,233,83
2561803,-4532,1632,17348,-260,232,108
2561815,-4644,1652,17448,-271,259,134
2561827,-4620,1468,17360,-280,261,111
2561839,-4716,1568,17408,-253,223,111
2561851,-4520,1596,17484,-258,262,94
2561863,-4636,1552,17236,-276,251,125
2561875,-4512,1572,17412,-270,263,100
2561887,-4628,1580,17276,-267,230,117
2561899,-4560,1592,17448,-268,257,107
2561911,-4620,1576,17484,-268,237,102
2561927,-4660,1508,17364,-267,233,100
2561939,-4576,1632,17416,-258,245,91
2561951,-4700,1604,17552,-289,271,101
2561963,-4612,1604,17316,-258,254,92
2561975,-4604,1612,17308,-272,261,104
2561987,-4640,1492,17336,-294,265,92
2561999,-4508,1564,17312,-260,248,126
2562011,-4728,1548,17396,-236,279,98
2562023,-4564,1484,17468,-258,260,107
2562035,-4508,1580,17308,-251,229,118
2562053,-4520,1516,17416,-257,246,122
2562065,-4492,1524,17468,-234,222,96
2562077,-4636,1644,17276,-246,228,97
2562089,-4700,1536,17368,-256,252,132
2562101,-4516,1612,17240,-275,269,117
2562113,-4540,1552,17296,-274,256,94
2562125,-4660,1544,17348,-257,251,93
2562137,-4552,1508,17332,-246,240,84
2562149,-4552,1684,17500,-245,258,99
2562161,-4620,1552,17440,-233,227,106
2562179,-4588,1604,17296,-250,267,108
2562191,-4744,1600,17392,-282,235,77
2562203,-4568,1624,17452,-251,248,72
2562215,-4560,1604,17276,-286,214,111
2562227,-4588,1520,17356,-262,219,96
2562239,-4564,1596,17328,-261,246,106
2562251,-4684,1596,17316,-262,265,105
2562263,-4620,1512,17332,-273,254,93
2562275,-4740,1568,17292,-269,276,118
2562287,-4608,1576,17332,-288,264,110
2562305,-4580,1520,17380,-256,270,78
2562317,-4588,1596,17476,-264,262,106
2562329,-4596,1576,17396,-237,226,92
2562341,-4584,1620,17476,-275,241,108
2562353,-4604,1620,17336,-276,265,100
2562365,-4524,1676,17312,-277,231,118
2562377,-4572,1540,17252,-245,246,94
2562389,-4552,1628,17340,-251,268,83
2562401,-4740,1620,17288,-277,228,91
2562413,-4568,1520,17436,-267,263,108
2562429,-4552,1508,17316,-250,240,118
2562441,-4696,1588,17340,-258,257,106
2562453,-4572,1560,17288,-249,244,130
2562465,-4528,1604,17540,-252,268,89
2562477,-4572,1568,17280,-233,262,121
2562489,-4652,1572,17424,-248,244,77
2562501,-4536,1632,17380,-251,236,101
2562513,-4528,1560,17356,-250,262,102
2562525,-4640,1588,17388,-269,263,76
2562537,-4564,1536,17472,-251,242,113
2562555,-4656,1536,17244,-279,244,89
2562567,-4596,1628,17448,-246,256,93
2562579,-4512,1504,17308,-248,251,96
2562591,-4532,1576,17424,-283,234,117
2562603,-4556,1484,17416,-311,256,107
2562615,-4712,1552,17388,-267,258,106
2562627,-4532,1624,17296,-265,259,129
2562639,-4604,1536,17368,-248,257,104
2562651,-4576,1508,17468,-223,232,81
2562663,-4616,1548,17248,-258,237,98
2562681,-4580,1572,17420,-267,248,107
2562693,-4616,1556,17332,-265,234,106
2562705,-4608,1588,17360,-263,250,109
2562717,-4668,1556,17472,-257,238,88
2562728,-4472,1592,17360,-277,257,111
2562740,-4620,1580,17360,-274,237,93
2562752,-4528,1624,17372,-282,252,101
2562764,-4576,1520,17284,-281,256,125
2562776,-4584,1524,17524,-246,245,142
2562788,-4604,1648,17348,-242,260,113
2562806,-4632,1552,17352,-258,257,111
2562818,-4564,1548,17472,-259,244,117
2562830,-4612,1604,17304,-273,257,92
2562842,-4584,1588,17244,-276,258,97
2562854,-4616,1580,17348,-274,259,116
2562866,-4572,1704,17352,-261,263,99
2562878,-4620,1432,17396,-280,238,118
2562890,-4572,1616,17352,-244,239,85
2562902,-4588,1620,17488,-262,248,104
2562914,-4584,1612,17184,-280,240,110
2562930,-4672,1604,17408,-229,270,121
2562942,-4636,1580,17372,-241,238,87
2562953,-4620,1604,17496,-274,248,112
2562965,-4560,1532,17492,-242,269,98
2562977,-4644,1496,17376,-258,239,114
2562989,-4520,1648,17264,-258,246,119
2563001,-4628,1652,17340,-244,272,109
2563013,-4628,1696,17472,-279,255,107
2563025,-4580,1616,17432,-270,263,104
2563037,-4564,1568,17400,-254,239,111
2563055,-4580,1728,17340,-271,257,109
2563067,-4592,1572,17428,-251,257,96
2563079,-4604,1540,17520,-270,262,117
2563091,-4540,1560,17392,-244,278,74
2563103,-4584,1580,17468,-252,261,95
2563115,-4568,1544,17360,-287,241,91
2563127,-4592,1616,17312,-262,271,114
2563139,-4584,1576,17428,-279,249,123
2563151,-4460,1632,17272,-262,236,97
2563163,-4624,1540,17320,-257,239,108
2563181,-4564,1528,17256,-253,264,107
2563193,-4488,1576,17416,-278,236,95
2563205,-4572,1516,17412,-291,238,95
2563217,-4640,1588,17432,-259,235,120
2563229,-4600,1612,17284,-268,260,87
2563241,-4564,1460,17464,-247,233,91
2563253,-4660,1604,17488,-245,243,117
2563265,-4580,1540,17340,-282,249,141
2563277,-4596,1592,17416,-255,249,104
2563289,-4788,1580,17368,-255,253,92
2563307,-4616,1588,17356,-247,261,111
2563319,-4580,1508,17288,-264,259,130
2563331,-4616,1460,17280,-259,258,109
2563343,-4644,1552,17436,-249,259,101
2563355,-4524,1648,17416,-263,234,106
2563367,-4564,1616,17432,-257,261,112
2563379,-4576,1528,17344,-288,249,100
2563391,-4560,1556,17364,-285,264,87
2563403,-4616,1552,17356,-271,257,114
2563415,-4568,1460,17328,-262,283,145
2563431,-4588,1472,17456,-279,243,117
2563443,-4552,1616,17332,-235,229,113
2563455,-4624,1612,17384,-257,276,98
2563467,-4616,1600,17408,-252,258,87
2563479,-4532,1536,17464,-244,230,95
2563491,-4680,1584,17344,-268,261,103
2563503,-4584,1540,17332,-242,266,86
2563515,-4560,1580,17276,-249,254,90
2563527,-4604,1532,17316,-259,237,116
2563539,-4624,1592,17336,-257,265,119
2563557,-4592,1612,17268,-263,258,92
2563569,-4596,1524,17276,-268,245,113
2563581,-4680,1720,17304,-243,246,108
2563593,-4540,1584,17360,-256,258,100
2563605,-4584,1600,17368,-247,253,101
2563617,-4576,1520,17392,-291,240,117
2563628,-4644,1692,17376,-282,229,113
2563640,-4532,1576,17460,-259,224,75
2563652,-4564,1668,17380,-250,288,117
2563664,-4588,1656,17488,-257,239,102
2563682,-4684,1612,17408,-251,264,92
2563694,-4544,1624,17416,-254,238,116
2563706,-4528,1516,17332,-254,254,96
2563718,-4624,1552,17448,-249,230,89
2563730,-4668,1552,17360,-270,234,90
2563742,-4620,1556,17304,-265,248,90
2563754,-4636,1532,17268,-268,237,119
2563766,-4556,1560,17460,-250,252,113
2563778,-4564,1496,17388,-263,236,78
2563790,-4680,1528,17304,-268,227,94
2563808,-4692,1552,17432,-255,268,117
2563820,-4504,1452,17516,-234,254,103
2563832,-4572,1656,17336,-270,243,74
2563844,-4680,1572,17448,-248,247,92
2563856,-4668,1532,17304,-252,234,124
2563868,-4628,1484,17428,-289,260,93
2563880,-4500,1532,17392,-270,242,97
2563892,-4588,1616,17288,-268,256,121
2563904,-4508,1644,17252,-271,226,109
2563916,-4540,1532,17524,-243,270,92
2563932,-4660,1656,17368,-245,268,90
2563944,-4680,1596,17376,-252,248,105
2563956,-4592,1624,17368,-248,259,76
2563968,-4644,1624,17376,-242,261,130
2563980,-4680,1632,17348,-269,253,102
2563992,-4548,1592,17360,-264,242,98
2564004,-4624,1560,17332,-239,242,101
2564016,-4568,1620,17348,-263,259,90
2564028,-4692,1540,17528,-277,240,105
2564040,-4600,1548,17264,-272,270,135
2564058,-4652,1600,17396,-273,259,99
2564070,-4656,1536,17368,-271,258,110
2564082,-4676,1652,17380,-275,261,124
2564094,-4540,1572,17244,-227,285,114
2564106,-4560,1496,17388,-279,253,82
2564118,-4488,1572,17372,-251,251,107
2564130,-4572,1544,17380,-246,258,104
2564142,-4664,1504,17416,-249,237,109
2564154,-4624,1564,17368,-269,267,86
2564166,-4692,1576,17328,-284,281,93
2564184,-4568,1580,17332,-240,274,100
2564196,-4548,1556,17300,-266,235,92
2564208,-4700,1640,17492,-243,239,92
2564220,-4628,1592,17308,-288,255,87
2564232,-4508,1524,17264,-274,271,105
2564244,-4696,1616,17332,-281,253,93
2564256,-4580,1496,17416,-269,243,120
2564268,-4616,1528,17416,-272,240,115
2564280,-4712,1464,17352,-264,236,112
2564292,-4676,1496,17344,-250,252,114
2564311,-4572,1576,17244,-251,265,108
2564323,-4596,1544,17372,-288,258,105
2564335,-4640,1620,17348,-278,249,96
2564347,-4628,1552,17296,-235,225,88
2564359,-4628,1560,17344,-251,253,91
2564371,-4540,1524,17332,-275,280,107
2564383,-4628,1608,17376,-272,261,122
2564395,-4664,1512,17252,-288,269,90
2564407,-4628,1608,17340,-247,254,118
2564419,-4620,1504,17500,-242,251,94
2564437,-4652,1648,17404,-247,249,100
2564449,-4452,1552,17296,-247,251,107
2564461,-4620,1520,17300,-261,253,89
2564473,-4604,1568,17340,-261,247,105
2564485,-4572,1620,17308,-254,251,95
2564497,-4596,1560,17408,-263,236,81
2564509,-4524,1612,17456,-249,259,110
2564521,-4516,1608,17444,-279,267,98
2564533,-4712,1576,17348,-264,246,100
2564545,-4724,1464,17480,-257,251,101
2564561,-4644,1620,17356,-263,248,104
2564573,-4648,1612,17324,-281,254,111
2564585,-4560,1512,17264,-253,266,82
2564597,-4636,1580,17404,-262,242,109
2564609,-4560,1560,17364,-290,298,89
2564621,-4652,1564,17376,-272,236,112
2564633,-4632,1564,17328,-260,266,104
2564645,-4576,1484,17480,-238,270,135
2564657,-4596,1472,17380,-242,267,80
2564669,-4652,1548,17332,-238,266,90
2564696,-4564,1556,17348,-257,243,96
2564708,-4620,1548,17416,-246,256,97
2564720,-4616,1568,17372,-279,239,129
2564732,-4540,1576,17328,-300,243,117
2564744,-4616,1612,17292,-253,251,102
2564756,-4660,1532,17260,-256,239,133
2564768,-4604,1544,17368,-272,242,119
2564780,-4652,1576,17268,-257,244,91
2564792,-4520,1580,17388,-247,245,88
2564804,-4628,1636,17400,-270,251,109
2564822,-4572,1600,17452,-257,241,114
2564834,-4600,1616,17332,-242,249,101
2564846,-4572,1640,17340,-307,236,119
2564858,-4532,1488,17308,-261,251,95
2564870,-4592,1540,17288,-244,272,97
2564882,-4676,1516,17408,-259,240,109
2564894,-4484,1536,17336,-252,265,119
2564906,-4660,1536,17328,-282,236,104
2564918,-4528,1524,17476,-278,247,84
2564930,-4704,1552,17364,-274,230,114
2564948,-4596,1628,17340,-265,250,89
2564960,-4540,1548,17344,-240,247,95
2564972,-4652,1604,17232,-263,250,98
2564984,-4648,1544,17264,-257,286,116
2564996,-4540,1584,17312,-265,267,109
2565008,-4528,1572,17444,-263,271,139
2565020,-4560,1576,17460,-274,246,117
2565032,-4692,1592,17504,-255,239,123
2565044,-4652,1548,17360,-264,234,100
2565056,-4652,1584,17272,-255,255,123
2565072,-4628,1504,17200,-256,253,94
2565084,-4572,1640,17460,-267,227,115
2565096,-4532,1564,17376,-265,222,125
2565108,-4592,1468,17400,-263,263,100
2565120,-4696,1584,17236,-278,250,87
2565132,-4596,1496,17368,-270,248,119
2565144,-4520,1676,17312,-259,244,91
2565156,-4584,1532,17332,-268,261,115
2565168,-4604,1624,17340,-258,261,122
2565180,-4600,1612,17396,-244,247,112
2565198,-4628,1500,17328,-242,251,94
2565210,-4584,1520,17264,-245,275,115
2565222,-4568,1556,17484,-245,246,108
2565234,-4588,1680,17336,-291,241,108
2565246,-4604,1548,17480,-243,236,127
2565258,-4588,1548,17328,-254,245,117
2565270,-4588,1592,17360,-270,240,118
2565282,-4624,1620,17388,-270,252,107
2565294,-4604,1596,17348,-283,233,125
2565306,-4648,1588,17240,-274,232,117
2565324,-4596,1636,17464,-217,262,138
2565336,-4596,1564,17236,-262,245,102
2565348,-4684,1556,17392,-249,234,84
2565360,-4608,1552,17420,-263,251,130
2565372,-4576,1532,17396,-252,243,113
2565384,-4456,1492,17356,-286,271,100
2565396,-4604,1696,17156,-238,253,115
2565408,-4552,1520,17448,-254,230,117
2565420,-4556,1656,17384,-259,246,109
2565432,-4572,1512,17396,-272,263,111
2565450,-4616,1604,17416,-266,256,111
2565462,-4624,1568,17440,-265,235,102
2565474,-4648,1556,17212,-269,263,105
2565485,-4652,1556,17352,-278,260,94
2565497,-4588,1524,17420,-249,259,98
