Time,AccelX,AccelY,AccelZ,GyroX,GyroY,GyroZ
1035032,6424,-4356,-12584,575,-19282,8159
1035043,4780,-4000,-11976,5,-21684,7270
1035068,1036,-3512,-11308,-345,-23243,6281
1035080,-240,-3072,-10752,127,-21987,5730
1035092,-1308,-2456,-10324,945,-20070,4821
1035104,-1688,-2604,-9216,1830,-17475,4470
1035116,-2120,-1504,-8860,2882,-14662,4289
1035128,-2252,-1000,-8780,4006,-12109,3832
1035140,-1872,-892,-8196,4911,-9577,3381
1035152,-1948,-1020,-7664,5491,-7577,3061
1035164,-2120,-1544,-7996,5586,-6450,2849
1035178,-2156,-2004,-8028,5510,-5330,2450
1035195,-2380,-2512,-8568,5428,-4463,2461
1035207,-2592,-2916,-9048,5193,-4133,2554
1035219,-2780,-3376,-9252,4983,-3775,2398
1035231,-3104,-3652,-9280,4691,-3563,2115
1035243,-3548,-3984,-9320,4201,-3312,1750
1035255,-4032,-4272,-9632,3810,-2720,1228
1035267,-4416,-4364,-9920,3389,-1778,651
1035279,-4512,-4620,-10004,3048,-340,177
1035291,-4508,-4940,-9952,2616,1020,-147
1035303,-4392,-5392,-10168,2061,2097,-320
1035318,-4308,-5928,-10956,1324,2701,-583
1035330,-3992,-6064,-11132,782,2991,-976
1035342,-3884,-6244,-11316,228,3108,-1283
1035356,-4064,-6404,-10568,-721,3368,-1542
1035368,-4204,-6356,-10748,-1459,3800,-1796
1035380,-4356,-6284,-10936,-2158,4321,-2137
1035392,-4148,-5860,-11168,-2637,4848,-2565
1035404,-4092,-5448,-11584,-2833,5217,-3020
1035416,-4140,-5128,-11720,-3059,5554,-3364
1035428,-4484,-4952,-11568,-3096,6028,-3883
1035443,-4352,-5212,-11768,-3286,7065,-4863
1035455,-3600,-5244,-12312,-3232,8029,-5709
1035467,-2692,-5176,-13248,-2954,8602,-6287
1035481,-1544,-4956,-13740,-2771,8637,-6582
1035493,-1004,-4904,-14164,-2503,8519,-6786
1035505,24,-5196,-14824,-2125,8935,-7123
1035517,392,-4832,-14132,-2010,9383,-7341
1035529,744,-4796,-13472,-2124,9230,-7475
1035541,1204,-5112,-13336,-2256,8939,-7229
1035553,1332,-4988,-13960,-2351,8484,-7156
1035568,1692,-4764,-14284,-2237,8594,-7493
1035580,1908,-4608,-15644,-1776,9208,-7718
1035592,2764,-4596,-15340,-1382,10599,-7424
1035604,3412,-5460,-14944,-835,11314,-6978
1035616,4052,-5516,-14600,-873,12424,-6833
1035628,4204,-5444,-14508,-734,12831,-7034
1035642,6072,-5560,-14940,-479,13268,-6551
1035654,6776,-5580,-15696,-179,13158,-6086
1035666,7472,-5728,-15852,-156,11786,-5450
1035678,7516,-5724,-16028,48,11017,-5257
1035693,7508,-5696,-17044,256,10499,-5383
1035705,8348,-5944,-16788,393,9501,-4578
1035717,8596,-5660,-15316,151,7577,-3798
1035729,8880,-6084,-16200,-27,5744,-3292
1035741,8108,-5972,-16332,-305,3715,-3020
1035753,8096,-5972,-16572,-603,2013,-2778
1035765,7360,-5928,-16496,-718,706,-2322
1035779,6844,-5640,-16352,-572,-193,-2096
1035791,6392,-5752,-16200,-599,-433,-1899
1035803,5972,-5456,-16336,-310,-144,-1793
1035818,5888,-5616,-16776,18,-9,-1349
1035830,5480,-5428,-16456,352,531,-1522
1035842,5672,-5284,-16308,625,864,-1838
1035854,5636,-5172,-16116,928,1039,-1863
1035866,5812,-4856,-15896,1124,996,-1463
1035878,5872,-5204,-14820,1203,1126,-1081
1035890,5948,-5000,-14732,1377,1022,-949
1035902,6004,-5144,-14800,1261,1019,-918
1035914,5496,-5044,-14316,1183,865,-932
1035926,5772,-5132,-14336,1008,651,-1175
1035943,5720,-4992,-14368,899,817,-1367
1035955,5652,-4872,-14308,930,1368,-1318
1035967,5796,-5032,-14076,977,2042,-1200
1035979,5768,-5160,-13876,941,2181,-1302
1035991,5932,-4992,-13816,807,2156,-1488
1036003,6492,-4984,-14480,753,2485,-1587
1036015,6652,-4868,-13704,630,2100,-1404
1036027,6640,-4952,-13408,325,1706,-1259
1036039,6700,-4948,-13404,130,1212,-1349
1036051,6664,-4820,-13492,-89,718,-1341
1036066,6536,-4784,-13540,-233,245,-1324
1036078,6488,-4752,-13756,-393,-90,-1213
1036090,6544,-4732,-13832,-582,-284,-1274
1036102,6536,-4772,-13736,-721,-503,-1314
1036116,6452,-4660,-13980,-836,-685,-1435
1036128,6460,-4468,-14208,-910,-786,-1535
1036140,6504,-4504,-14048,-944,-798,-1630
1036152,6384,-4356,-13972,-1000,-775,-1676
1036164,6504,-4360,-14088,-1016,-828,-1692
1036176,6560,-4296,-13916,-1044,-870,-1726
1036191,6596,-4188,-13900,-1142,-1002,-1775
1036203,6496,-4180,-13896,-1201,-1126,-1792
10364096,-1592,-1491,-1715
1036364,6148,-3516,-14000,-1580,-1469,-1664
1036376,6168,-3512,-14264,-1534,-1445,-1613
1036390,5992,-3440,-14296,-1429,-1370,-1608
1036402,5952,-3384,-14368,-1333,-1224,-1613
1036414,5884,-3292,-14400,-1214,-1040,-1626
1036426,5908,-3264,-14252,-1090,-859,-1636
1036441,5988,-3220,-14292,-887,-664,-1557
1036453,6112,-3168,-14524,-756,-591,-1486
1036465,6084,-3108,-14448,-643,-602,-1402
1036477,6120,-3200,-14476,-507,-746,-1381
1036489,6188,-3032,-14368,-464,-872,-1360
10364096,-1592,-1491,-1715
1036364,6148,-3516,-14000,-1580,-1469,-1664
1036376,6168,-3512,-14264,-1534,-1445,-1613
1036390,5992,-3440,-14296,-1429,-1370,-1608
1036402,5952,-3384,-14368,-1333,-1224,-1613
1036414,5884,-3292,-14400,-1214,-1040,-1626
1036426,5908,-3264,-14252,-1090,-859,-1636
1036441,5988,-3220,-14292,-887,-664,-1557
1036453,6112,-3168,-14524,-756,-591,-1486
1036465,6084,-3108,-14448,-643,-602,-1402
1036477,6120,-3200,-14476,-507,-746,-1381
1036489,6188,-3032,-14368,-464,-872,-1360
1036501,6008,-2992,-14468,-340,-975,-1297
1036515,5936,-2820,-14696,-184,-1046,-1235
1036527,5880,-2752,-14828,-25,-999,-1183
1036539,5964,-2644,-14748,171,-984,-1179
1036551,5996,-2572,-14880,341,-1042,-1166
1036566,5952,-2440,-14924,560,-1103,-1125
1036578,5888,-2440,-14944,723,-1135,-1199
1036590,5844,-2300,-14992,950,-1104,-1249
1036602,5828,-2400,-14824,1124,-1053,-1238
1036614,5716,-2400,-15100,1314,-1053,-1294
1036626,5684,-2456,-15052,1516,-1006,-1356
1036638,5536,-2476,-14912,1670,-994,-1316
1036650,5596,-2584,-14868,1803,-1005,-1324
1036662,5600,-2572,-14984,1911,-1020,-1330
1036676,5640,-2824,-14900,2092,-1088,-1338
1036691,5584,-2904,-14692,2182,-1262,-1296
1036703,5364,-3092,-14712,2189,-1362,-1272
1036715,5336,-3136,-14720,2269,-1365,-1329
1036727,5300,-3196,-14548,2258,-1332,-1252
1036739,5284,-3352,-14572,2396,-1324,-1213
1036751,5220,-3316,-14604,2479,-1281,-1196
1036763,5132,-3488,-14432,2500,-1309,-1174
1036775,5216,-3624,-14732,2510,-1374,-1224
1036787,5152,-3744,-14452,2525,-1512,-1205
1036801,5140,-3848,-14588,2506,-1646,-1230
1036816,4888,-3888,-14164,2366,-1678,-1346
1036828,4948,-4012,-14064,2333,-1620,-1342
1036840,4976,-4180,-14132,2224,-1642,-1320
1036852,4920,-4100,-13992,2126,-1627,-1340
1036864,4928,-4188,-14052,1981,-1688,-1424
1036876,4884,-4220,-14124,1836,-1732,-1483
1036888,4728,-4136,-14088,1737,-1787,-1559
1036900,4740,-4184,-14072,1636,-1880,-1659
1036912,4892,-4148,-14116,1501,-1946,-1730
1036924,4808,-4116,-14168,1367,-2071,-1837
1036939,4888,-3980,-13928,1132,-2201,-2062
1036951,4812,-3984,-13984,948,-2335,-2207
1036963,4840,-3948,-14048,854,-2430,-2331
1036977,4740,-3960,-14156,707,-2559,-2358
1036989,4684,-3880,-14320,693,-2753,-2489
1037001,4580,-3884,-14384,561,-2952,-2618
1037013,4492,-3804,-14536,596,-3079,-2743
1037025,4408,-3852,-14376,613,-3183,-2850
1037037,4272,-4072,-14616,648,-3272,-2944
1037049,4056,-4012,-14568,602,-3379,-3106
1037064,3944,-4044,-14456,629,-3393,-3517
1037076,3820,-3804,-14504,717,-3339,-3845
1037088,3768,-3832,-14420,725,-3204,-4093
1037102,3752,-3816,-14712,913,-2992,-4395
1037114,3744,-3732,-14952,1023,-2836,-4704
1037126,3936,-3644,-14812,1181,-2682,-5039
1037138,3968,-3536,-14956,1401,-2562,-5364
1037150,4232,-3456,-14896,1542,-2591,-5643
1037162,4296,-3324,-14972,1690,-2734,-5938
1037174,4340,-3168,-14892,1845,-2874,-6161
1037189,4164,-3352,-14800,1989,-2954,-6396
1037201,4124,-3312,-14912,2092,-3052,-6612
1037213,4128,-3280,-14788,2165,-3138,-6870
1037225,4176,-3348,-14984,2191,-3222,-7228
1037237,4156,-3476,-14984,2282,-3207,-7591
1037249,4184,-3352,-14828,2319,-3234,-7823
1037263,4256,-3388,-15112,2255,-3618,-7745
1037275,4052,-3284,-14996,2438,-3516,-8054
1037287,4176,-3488,-14880,2371,-3433,-8347
1037299,4140,-3564,-14904,2220,-3581,-8575
1037314,4304,-3524,-14708,2280,-3645,-8788
1037326,4276,-3748,-14640,2210,-3841,-8983
1037338,4384,-3716,-14848,2158,-4070,-9265
1037350,4324,-3844,-14876,2085,-4154,-9583
1037362,4416,-3992,-14852,2034,-4352,-9703
1037374,4284,-4120,-14700,1937,-4535,-9925
1037388,4440,-4404,-14572,1785,-4618,-9825
1037400,4228,-4404,-14296,1787,-4617,-9773
1037412,4216,-4732,-14400,1670,-4585,-9696
1037424,4172,-4920,-14556,1676,-4464,-9655
1037439,4140,-5132,-14508,1647,-4033,-9519
1037451,4116,-5376,-14580,1632,-3742,-9523
1037463,4148,-5612,-14732,1678,-3562,-9433
1037475,4384,-5560,-14508,1654,-3437,-9418
1037487,4528,-5784,-14576,1623,-3509,-9449
1037499,4540,-5664,-14480,1572,-3546,-9494
1037511,4668,-5708,-14316,1473,-3657,-9666
1037523,4616,-5644,-14476,1428,-3690,-9795
1037535,4392,-5616,-14552,1368,-3640,-10001
1037549,4400,-5584,-14324,1366,-3531,-10220
1037564,4352,-5556,-14392,1468,-3320,-10311
1037576,4060,-5668,-14496,1505,-3099,-10418
1037588,3972,-5668,-14500,1518,-2733,-10606
1037600,4176,-5668,-14416,1614,-2317,-10768
1037612,4064,-5836,-14496,1601,-1968,-10795
1037624,4096,-5688,-14460,1600,-1537,-10884
1037636,4332,-5584,-14420,1658,-1201,-10948
1037648,4408,-5692,-14568,1693,-955,-10874
1037660,4432,-5884,-14260,1635,-903,-10843
1037674,4140,-5944,-14648,1532,-889,-10856
1037689,4308,-5920,-14828,1316,-792,-10733
1037701,4372,-6104,-15060,1230,-948,-10525
1037713,4524,-6056,-15176,936,-1285,-10271
1037725,4660,-6060,-15300,623,-1911,-10020
1037737,4428,-6140,-15420,225,-2776,-9939
1037749,4364,-6016,-15544,-199,-3655,-9848
1037761,4076,-5664,-15828,-583,-4355,-9845
1037773,3552,-5336,-15988,-779,-4828,-9785
1037785,3232,-5108,-16084,-1005,-4983,-9552
1037797,2860,-4744,-16228,-1085,-4817,-9230
1037812,2556,-4400,-16048,-1211,-4460,-8744
1037824,2460,-4020,-15868,-1232,-4214,-8362
1037836,2332,-3820,-16128,-1270,-3954,-8020
1037850,2500,-3376,-16164,-1368,-3812,-7777
1037862,2544,-3136,-16156,-1325,-4002,-7579
1037874,2588,-2792,-16300,-1189,-4158,-7266
1037886,2372,-2504,-16212,-1052,-4270,-6980
1037898,2356,-2404,-16212,-1035,-4360,-6686
1037910,2068,-2416,-16224,-974,-4398,-6427
1037922,1864,-2376,-16108,-933,-4592,-6312
1037937,1700,-1992,-16140,-859,-5029,-6435
1037949,1628,-1832,-16080,-780,-5292,-6521
1037961,1460,-1612,-15844,-555,-5480,-6541
1037975,1128,-1564,-15856,-370,-5330,-6462
1037987,736,-1832,-15736,-208,-4861,-6515
1037999,456,-1740,-15760,5,-4188,-6672
1038011,436,-1696,-15604,287,-3296,-6822
1038023,336,-1904,-15700,519,-2401,-7038
1038035,552,-2160,-15640,806,-1767,-7320
1038047,852,-2256,-15620,1014,-1317,-7533
1038062,972,-2460,-15472,1305,-1083,-7605
1038074,928,-2628,-15536,1526,-1141,-7641
1038086,820,-2960,-15224,1686,-1340,-7712
1038098,668,-3268,-15012,1668,-1530,-7951
1038110,676,-3300,-14652,1674,-1726,-8204
1038122,720,-3320,-14376,1593,-1936,-8298
1038136,700,-3384,-14272,1545,-2009,-8387
1038148,652,-3256,-14372,1502,-2154,-8594
1038160,812,-3488,-14072,1461,-2136,-8717
1038172,728,-3244,-14144,1485,-2107,-8881
1038187,572,-3304,-14048,1617,-1752,-9090
1038199,636,-3452,-13884,1702,-1296,-9143
1038211,852,-3424,-13956,1837,-799,-9246
1038223,1300,-3312,-13856,1929,-635,-9269
1038235,1816,-3448,-13896,2053,-883,-9238
1038247,2000,-3640,-13992,1985,-1336,-9210
1038261,2068,-3748,-14072,1842,-1734,-9267
1038273,2088,-4112,-14020,1872,-1981,-9158
1038285,1940,-4212,-14096,1862,-1753,-8905
1038297,2020,-4340,-14108,1949,-1634,-8776
1038312,2248,-4332,-14380,1868,-1484,-8562
1038324,2376,-4340,-14448,1877,-1452,-8429
1038336,2308,-4476,-14564,1801,-1716,-8311
1038348,2360,-4632,-14504,1863,-1764,-7813
1038360,2084,-5088,-14516,1745,-2219,-7775
1038372,1884,-4964,-14636,1640,-2404,-7950
1038384,1772,-4852,-14884,1657,-2353,-8031
1038396,1864,-4564,-15012,1710,-2119,-7837
1038408,1672,-4628,-14968,1736,-1808,-7646
1038422,1604,-4452,-15204,1752,-1477,-7520
1038437,1876,-4104,-14808,1928,-991,-7295
1038449,1980,-3916,-14728,1924,-750,-7024
1038461,2272,-3656,-14628,1831,-717,-6681
1038473,2160,-3596,-14616,1578,-1198,-6714
1038485,2144,-3616,-14500,1363,-1438,-6617
1038497,1896,-3472,-14416,1115,-1354,-6406
1038509,2004,-3088,-14868,937,-1080,-6330
1038521,1800,-2696,-14608,453,-1146,-6199
1038533,2316,-2040,-14560,440,-1126,-6011
1038545,2568,-2116,-14388,61,-1023,-5623
1038562,2792,-2100,-14480,-631,-1035,-5073
1038574,2888,-1976,-14740,-1047,-1593,-4796
1038586,3136,-1460,-14984,-1342,-1831,-4609
1038598,3168,-796,-15620,-1393,-2090,-4265
1038610,3072,-928,-15132,-1471,-2287,-3679
1038622,2644,-564,-15376,-1498,-2305,-3221
1038634,2440,-936,-14936,-1719,-2121,-2790
1038646,2336,-1124,-14752,-1944,-2016,-2412
1038658,2316,-1276,-14488,-2329,-1901,-2083
1038670,2480,-1268,-14304,-2836,-1791,-1804
1038685,3304,-1088,-14964,-3511,-2245,-1622
1038697,2724,-308,-15164,-3526,-2421,-1511
1038709,3180,-252,-14964,-3909,-3053,-1378
1038723,2540,-44,-14952,-4340,-3486,-1564
1038735,2088,156,-15028,-4722,-3744,-1561
1038747,2056,192,-15304,-5252,-3729,-1774
1038759,1900,600,-15632,-5432,-3775,-1935
1038771,1772,632,-15964,-5621,-3403,-2153
1038783,1676,860,-16568,-5437,-2908,-2265
1038795,1584,1300,-16924,-5360,-2241,-2690
1038810,2356,1700,-16876,-5254,-2004,-2601
1038822,2584,1644,-17412,-4970,-2272,-2425
1038834,2452,1116,-17776,-5226,-2392,-2528
1038848,2128,1392,-16912,-5305,-2631,-2765
1038860,2204,1340,-17352,-5441,-2823,-3203
1038872,2084,1808,-17960,-5398,-3298,-3735
1038884,2232,1676,-18488,-5551,-3229,-4073
1038896,1512,2176,-18168,-5468,-2850,-4847
1038908,2312,2432,-18324,-5210,-2430,-5165
1038920,2064,2620,-18500,-5085,-1668,-5241
1038935,2452,2440,-17888,-5330,-631,-5573
1038947,2708,2288,-18360,-5148,-604,-5683
1038959,2948,2396,-18344,-5545,-871,-6034
1038971,3052,2532,-18792,-5875,-1265,-7118
1038983,2836,2256,-18700,-5902,-1227,-7444
1038995,2324,2460,-18264,-5902,-600,-7897
1039009,2960,2824,-18384,-5604,726,-8319
1039021,2896,2992,-17876,-5466,1737,-9353
1039033,3504,3484,-17708,-5196,2331,-10207
1039045,4204,3796,-17928,-4913,3165,-11220
1039060,4548,3564,-17816,-4454,4227,-12451
1039072,4404,3280,-17468,-4359,5012,-13504
1039084,4664,2804,-16912,-4390,5775,-14654
1039096,4852,3052,-17132,-4030,6588,-16160
1039108,5560,3312,-16688,-3582,7800,-17259
1039120,6456,3292,-16076,-3217,8422,-18597
1039134,7608,3352,-15936,-2935,7939,-20307
1039146,8508,3228,-15876,-2699,7387,-21345
1039158,8888,3044,-15928,-2407,6692,-22747
1039170,9008,2960,-15568,-2032,5913,-24126
1039185,8992,2780,-15456,-1866,4841,-25717
1039197,8392,2764,-15032,-1629,3777,-26945
1039209,8280,2812,-14920,-1374,3078,-28037
1039221,7960,2920,-14720,-1076,3743,-29004
1039233,7580,2936,-14304,-255,5209,-30008
1039245,7288,3092,-14128,1101,6346,-31121
1039257,7276,2764,-14540,2712,7055,-31914
1039269,7648,2188,-14396,4127,7491,-32580
1039281,7652,1496,-14692,5612,7463,-32768
1039295,7268,432,-15016,7536,7230,-32768
1039310,6692,-796,-15192,9138,7069,-32768
1039322,6644,-1900,-15516,9893,6628,-32768
1039334,6980,-2580,-16268,10232,5331,-32768
1039346,7256,-3140,-16184,9769,3837,-32768
1039358,7112,-2964,-16452,9684,3149,-32224
1039370,7372,-3936,-16984,10030,3587,-31042
1039382,7784,-4492,-16624,10290,4108,-29577
1039394,8820,-4840,-16668,10633,4455,-27855
1039406,10264,-5680,-17752,11075,4279,-25614
1039418,12496,-6628,-18824,11602,3939,-23249
1039435,16652,-8524,-19184,12402,4083,-18975
1039447,19944,-10212,-19480,13020,3201,-14429
1039459,22636,-11764,-18324,13340,1448,-9976
1039471,24204,-13580,-17404,12995,-276,-6252
1039483,24808,-14620,-18408,12869,-1250,-2120
1039495,24488,-15112,-20216,13066,-1951,2640
1039507,23348,-15756,-22212,13148,-2769,6625
1039519,24864,-18784,-20352,11971,-818,10464
1039531,27408,-21652,-19744,11103,-2345,14857
1039543,28956,-23392,-15732,8433,-7493,17953
1039559,27516,-24844,-10636,3699,-16693,21457
1039571,22148,-24176,-8312,704,-21196,22895
1039583,19324,-22348,-8236,-896,-22280,23613
1039597,18356,-18520,-8896,-1083,-21239,24679
1039609,19068,-15412,-8556,-545,-19803,25120
1039621,18948,-12460,-7304,157,-18584,25323
1039633,17632,-9632,-5876,979,-17449,25367
1039645,16440,-6928,-4612,1948,-15968,25196
1039657,15980,-3560,-3432,3182,-13705,24994
1039669,15404,-92,-2664,4468,-11280,25218
1039685,14940,4652,-3428,6031,-8494,24900
1039697,14188,8044,-4100,6481,-7600,24203
1039709,12728,10636,-4036,6428,-7627,22632
1039723,9004,12048,-3428,5678,-8459,19505
1039735,6308,12772,-3960,5230,-8306,16567
1039747,4168,13276,-5224,4703,-6724,14420
1039759,2616,15216,-6064,4618,-4362,13038
1039771,2076,18300,-7312,4371,-1591,11648
1039783,2048,21720,-9236,4022,856,10568
1039795,2736,24708,-11028,3760,2349,11100
1039811,312,24744,-11172,2318,558,13468
1039823,-4240,21512,-10004,79,-1967,14225
1039835,-10228,19020,-9784,-1875,-5408,13152
1039847,-13152,18636,-12360,-2191,-6955,12038
1039859,-15196,19956,-13260,-2485,-6680,12524
1039871,-19096,19380,-13696,-1896,-5883,12857
1039885,-23756,17792,-15576,-1417,-2567,10484
1039897,-27968,18312,-18612,-1635,643,8353
1039909,-32464,18644,-21708,-457,5943,6725
1039921,-32768,10428,-14352,3348,9556,7867
1039937,-32768,10928,-6680,1721,4860,1572
1039949,-28016,10704,-3888,3260,16875,-1929
1039961,-24320,3828,-8044,2870,23222,4165
1039973,-21468,500,-12412,2853,27500,4638
1039985,-16804,564,-11972,2371,26791,603
1039997,-11508,796,-12256,973,22974,-669
1040011,1116,4480,-15140,-688,18555,1875
1040023,-2024,1732,-14080,-2445,12890,4402
1040035,-3364,-556,-12108,-3940,8187,3415
1040047,-3300,-2648,-12824,-5766,4890,2156
1040063,-4312,-4436,-11532,-8093,-1419,4347
1040075,-4012,-5156,-11864,-9724,-5080,4687
1040087,-3956,472,-13152,-10001,-6371,5254
1040099,-5928,-380,-12632,-10210,-5029,6418
1040111,-5916,380,-13684,-10608,-7122,3401
1040123,-6152,4228,-14548,-10934,-7383,804
1040135,-7480,7024,-16424,-9752,-4339,492
1040147,-2952,11616,-12644,-8747,203,955
1040159,-7448,10072,-12668,-7954,1031,174
1040173,-5740,8400,-9060,-6868,3872,72
1040188,-4092,13708,4168,-6548,4899,-2303
1040200,-4984,10204,-10920,-7198,9257,-412
1040212,-4192,9736,-11360,-6924,9575,580
1040224,-3508,9280,-9400,-8347,11266,2091
1040236,-2812,8264,-11460,-8707,12612,4388
1040248,-164,9536,-11528,-8118,13910,5924
1040260,-364,10540,-11288,-8290,13715,6920
1040272,496,9900,-11952,-8868,13594,6727
1040284,1096,9280,-12520,-8816,13990,5940
1040298,3336,8548,-12880,-9651,13829,5609
1040313,4596,7544,-11908,-10583,13931,7309
1040325,5588,8232,-10288,-11523,14095,7809
1040337,6432,9404,-10608,-12046,14410,9252
1040349,6712,11572,-8584,-13419,15302,10361
1040361,9328,11304,-8892,-14122,15416,9836
1040373,11392,14004,-8676,-15734,15883,10753
1040385,14096,14648,-7912,-17455,16886,11195
1040397,14816,15180,-9500,-18334,16666,10732
1040409,15432,17388,-9484,-19485,16295,9786
1040421,16224,17912,-8784,-19317,16580,9463
1040438,18952,17716,-11508,-21033,16488,6798
1040450,20552,17304,-13024,-20890,16526,5337
1040462,20208,15476,-12008,-20382,15518,7123
1040474,17564,16800,-10212,-20045,12054,7987
1040486,15956,16488,-9320,-18376,8144,9566
1040498,15772,16412,-10512,-17758,7880,10283
1040510,13016,17940,-11272,-16941,11612,9160
1040522,10232,18168,-10868,-15072,14115,5697
1040534,8744,19160,-8664,-12920,15163,4075
1040546,8224,19696,-9692,-12374,20194,3777
1040562,7616,20156,-6156,-9998,27393,-493
1040574,6872,19460,-6108,-8651,26295,-7348
1040586,8240,18428,-6224,-10191,25722,-12841
1040600,10976,18472,-4924,-12163,25998,-18177
1040612,8732,20936,-4968,-13050,21158,-23053
1040624,10708,30488,-7604,-9419,19536,-24665
1040636,13536,26060,-10288,-10457,20442,-23944
1040648,12592,28160,-8944,-13066,20916,-25768
1040660,14684,29380,-7400,-13942,23624,-30853
1040672,16688,28660,-3200,-15122,24957,-32768
1040688,20020,30620,-1148,-16949,29055,-32768
1040700,20860,32220,-496,-15387,27177,-31403
1040712,16628,28332,1244,-14749,26946,-31846
1040726,17056,24828,2684,-15037,28837,-26461
1040738,13308,26616,2080,-13582,32402,-28633
1040750,15368,26864,80,-8494,32194,-32377
1040762,17852,27160,-6072,-3553,24765,-32768
1040774,18412,27524,-8884,-1576,24047,-32135
1040786,14348,21748,-4344,-1760,25465,-30300
1040798,13180,19556,-592,-4221,26798,-32768
1040814,14284,25400,-1792,-1545,27941,-26323
1040826,13816,23528,-2260,991,26396,-25469
1040838,12464,24148,-2000,-66,25832,-27526
1040850,7664,23256,-3620,372,26472,-27555
1040862,9608,23888,-2784,2232,24370,-28598
1040874,10108,23500,-2712,3720,24483,-27144
1040888,11752,22144,-3988,5251,26774,-23995
1040900,8052,21484,-4488,6244,23823,-24860
1040912,6728,20328,-6504,7520,21119,-27637
1040924,4880,19332,-5236,8104,17999,-29716
1040940,4972,18412,-6528,9034,16758,-26133
1040952,1664,15864,-6640,10648,16479,-22775
1040964,1192,13856,-8004,11454,16387,-23232
1040976,84,11984,-8096,11288,18228,-24158
1040988,-1488,12536,-8252,11547,19517,-23650
1041000,-3712,11952,-7576,11880,21112,-23514
1041014,-3284,10096,-8392,13434,23691,-25497
1041026,-4248,10720,-8364,15212,26361,-26840
1041038,-5088,11776,-9412,16550,29179,-30380
1041050,-5432,12904,-10140,19697,32079,-32768
1041066,-4716,9924,-12160,23220,32767,-32768
1041078,-4412,6876,-14340,23440,32767,-28370
1041090,-3800,5880,-15168,25727,32767,-22452
1041102,-1288,6384,-14944,28238,32767,-20694
1041114,1020,8708,-14780,30707,32767,-18637
1041126,6364,10816,-13100,31893,32767,-17494
1041138,11036,10260,-14072,32113,32767,-15042
1041150,12244,7296,-15148,30810,28106,-11952
1041162,13700,4960,-17016,28614,20759,-9982
1041176,15864,2068,-18488,27197,13640,-7450
1041191,19948,-1416,-22744,25301,10610,-3529
1041203,23212,-1676,-26684,24401,8590,2917
1041215,24944,812,-26640,24436,5699,10251
1041227,24176,5524,-27704,25247,1660,14496
1041239,23140,9668,-29828,25569,-1146,15612
1041251,23140,12736,-29072,24957,-1635,19186
1041263,21760,14472,-27804,26496,-4,25496
1041275,18352,13836,-26636,27728,1459,29349
1041287,15808,13600,-25500,28439,1929,32552
1041301,13472,15572,-23156,29809,3497,32767
1041316,12000,18052,-19724,30531,4980,32767
1041328,11084,19844,-16588,30377,4791,32767
1041340,10176,22048,-14528,30424,4297,32767
1041352,8816,24348,-12828,29949,4738,32767
1041364,7724,25876,-11184,29367,6391,32767
1041376,6308,26652,-9840,29025,9071,32767
1041388,5736,26792,-9516,28528,12835,32767
1041400,4980,25868,-8568,27690,17331,32767
1041412,3124,24344,-9412,27057,21887,32767
1041424,1320,22808,-9356,25278,25284,32767
1041441,672,20040,-10352,21670,30633,32767
1041453,1732,19420,-11456,19268,32754,32767
1041465,4772,20108,-14584,17847,32599,32767
1041477,7004,22400,-17260,16418,27959,32767
1041489,3280,24452,-18372,14368,18429,32767
1041501,-5252,24788,-17892,11886,9617,32767
1041513,-15452,24672,-15184,9941,5919,32767
1041525,-24556,24592,-13680,9700,10442,32130
1041537,-30464,24044,-15440,10884,22084,29111
1041549,-32488,23608,-18084,12471,32767,29126
1041565,-28220,21680,-18312,12089,32767,27394
1041577,-22260,19440,-19436,9787,32767,23405
1041589,-14820,18740,-20576,6636,32767,19934
1041603,-9912,16996,-19872,3043,27348,18945
1041615,-10772,14936,-17944,419,16002,17839
1041627,-15396,10472,-14992,-3249,3226,14540
1041639,-13700,15548,-12484,-5815,-9502,12913
1041651,-21052,8184,-12128,-9356,-20246,11375
1041663,-27940,4748,-10956,-8873,-20579,10616
1041675,-32768,2648,-9680,-7395,-15859,10953
1041691,-32768,4136,-10984,-4650,-2309,9401
1041703,-31560,4224,-9720,-3813,5256,6311
1041715,-26800,4836,-11108,-2674,10051,3560
1041729,-23380,3636,-14116,-599,14387,725
1041741,-13372,1700,-15516,-17,18506,136
1041753,-12520,472,-14228,-63,16460,406
1041765,-8232,-344,-13056,-102,14997,-170
1041777,-5476,-1032,-10984,-1808,12536,-2089
1041789,-2276,-1692,-11528,-3303,9058,-2472
1041801,564,-2008,-11516,-4781,6047,-817
1041817,-308,-3236,-12244,-6957,-244,2369
1041829,176,-2248,-12516,-7955,-3694,1749
1041841,-1300,-484,-12916,-9134,-5529,747
1041853,-808,1464,-12300,-9456,-6282,1670
1041865,-2296,2676,-12228,-9561,-6339,2347
1041877,-3724,2588,-13080,-9551,-4848,1477
1041891,-3052,5756,-12992,-9970,-3410,-627
1041903,-2596,6808,-14132,-9684,-2863,-1362
1041915,-1572,8720,-14476,-9641,-1115,-1657
1041927,-592,8616,-14284,-9887,-390,-1056
1041943,-1932,7116,-14996,-10126,275,796
1041955,-1860,5116,-15080,-9364,2776,496
1041967,-3656,4364,-12588,-9216,5812,708
1041979,-32,1776,-4736,-13102,4499,-3267
1041991,1572,6256,-12472,-11934,3517,-2356
1042003,-1500,11804,-15004,-9705,4644,1495
1042017,2856,5436,-17628,-10301,3635,4918
1042029,-1216,6004,-13684,-11307,4430,2909
1042041,3396,632,-18828,-10240,5898,2539
1042053,-2344,6384,-12424,-11661,7005,4271
1042069,-1904,11368,-11460,-12922,10567,5066
1042081,1664,10124,-14432,-12020,11559,7655
1042093,2300,6808,-12544,-11629,14951,6731
1042105,5380,9732,-9668,-12515,15973,8237
1042117,7068,9180,-11856,-12374,16975,9846
1042129,7512,11364,-10916,-12654,15755,11320
1042141,10012,10456,-10956,-14163,13391,9521
1042153,8968,12112,-8768,-14740,11047,7784
1042165,11404,13432,-13400,-15642,11989,7316
1042179,11760,13480,-11644,-16260,12184,9318
1042194,13160,14428,-10148,-16947,10311,11490
1042206,15016,13136,-11808,-17913,8941,10295
1042218,14328,13988,-11844,-18215,6856,10940
1042230,10656,16908,-8916,-18702,6051,9869
1042242,8752,17176,-8240,-17945,7414,8874
1042254,7176,17292,-7264,-17739,9154,7418
1042266,7296,18868,-7492,-17755,12146,7137
1042278,5232,23132,-5576,-16548,15713,8704
1042290,5544,23952,-4908,-16632,18902,9353
1042304,5380,24004,-5332,-16833,23670,8541
1042319,9112,24168,-4728,-16822,27008,3628
1042331,11776,27972,-5760,-17649,24354,-1043
1042343,13692,31524,-6144,-18646,23371,-3110
1042355,13244,30472,-5512,-18854,22936,-2475
1042367,12860,29620,-5340,-18870,22752,-3672
1042379,8584,30920,-5944,-19279,20283,-6103
1042391,4136,29208,-6104,-19391,23407,-13550
1042403,4656,31680,-6964,-19202,27876,-16756
1042415,5508,32588,-6408,-17715,29471,-20814
1042427,10000,31684,-7960,-15785,29501,-25902
1042444,12660,32767,-7268,-15119,32580,-24558
1042456,13572,30572,-6944,-13077,30180,-27879
1042468,17712,29620,-7664,-12807,29719,-25746
1042480,13676,29736,-6568,-10954,32767,-25616
1042492,17420,27264,-4140,-12683,32767,-24783
1042504,14748,28924,-1620,-10503,32767,-25805
1042516,18988,31968,-1324,-5170,32767,-22454
1042528,21220,29844,-3116,-1171,32767,-15668
1042540,19204,27064,-3256,2228,32767,-20092
1042552,24520,23904,-2892,1629,30580,-23824
1042568,21036,26212,-2788,1181,24251,-26193
1042580,18260,26072,-3612,280,17321,-31863
1042592,10892,28140,-1876,1864,15491,-32768
1042606,9632,29616,-1684,5313,11905,-31630
1042618,9188,27852,-1260,8767,11271,-30598
1042630,6660,23404,-2468,10503,12582,-26015
1042642,5248,25424,-1892,11465,15177,-26976
1042654,5960,23744,-2576,12625,18655,-24564
1042666,6580,24360,-2564,13129,21275,-21766
1042678,7316,23876,-3736,11889,22618,-22779
1042694,5528,19616,-592,12815,22735,-25184
1042706,4724,18020,-1532,12600,22116,-26492
1042718,2688,16912,-1740,14050,23495,-27629
1042732,3060,17640,-400,14363,23809,-29408
1042744,4308,19152,-2480,14308,22633,-25698
1042756,5340,19188,-2884,14685,22998,-26602
1042768,4140,17968,-3528,14460,21638,-26930
1042780,2928,16992,-4916,16160,21284,-31121
1042792,-1532,16120,-6564,18365,21247,-32768
1042804,496,15160,-8352,19790,21857,-32768
1042820,-2144,14340,-9988,20054,21235,-28262
1042832,-3976,10768,-9668,17811,21408,-27673
1042844,-5680,9620,-9396,17332,23433,-27577
1042856,-4776,6896,-9080,17957,23977,-27043
1042868,-5072,7336,-9248,19222,25762,-26416
1042880,-3800,7536,-9628,19864,29105,-26487
1042894,-312,9048,-11704,21146,29975,-26674
1042906,3156,10092,-14768,21999,29135,-25679
1042918,7560,11236,-16632,22890,27473,-23483
1042930,10184,12688,-17372,23489,24320,-21085
1042946,15836,8748,-18916,23953,21155,-17030
1042958,19320,7956,-21356,25278,21180,-13684
1042970,22372,4424,-20608,26039,20591,-11285
1042982,27652,-1164,-20544,24820,15837,-6425
1042994,27280,-3876,-22992,23598,8159,561
1043006,27264,-1736,-23868,22590,3053,4287
1043020,23880,148,-20508,22679,-3684,7216
1043032,19252,1992,-20936,23278,-5127,9403
1043044,17732,3756,-21416,25484,-1239,11778
1043056,18360,4244,-20380,27009,3370,16534
1043072,19140,5368,-18272,27988,5035,24168
1043084,18512,8128,-16620,28042,3811,27821
1043096,16296,11160,-15788,27391,1859,30096
1043108,14604,13244,-15080,26567,1356,31862
1043120,13428,14440,-14248,25998,2178,32767
1043132,12764,15268,-13808,25534,3610,32767
1043144,10852,16724,-13424,25246,4649,32767
1043156,7880,18624,-12652,25295,5390,32767
1043168,4920,20156,-11952,25336,7062,32767
1043182,2716,21108,-11140,25184,10504,32767
1043197,1820,21300,-10700,24956,15601,32767
1043209,1440,20852,-10888,24604,19317,32767
1043221,1660,20720,-11216,23890,22298,32767
1043233,2092,20760,-11964,22858,22829,32767
1043245,1996,20844,-12344,21122,21473,32767
1043257,1228,21220,-12508,19639,19336,32767
1043269,116,21536,-12060,18153,16626,32767
1043281,-2068,21368,-11772,16416,13224,32767
1043293,-3000,21684,-12104,14962,10227,32767
1043307,-4688,22560,-11964,13060,7152,32767
1043322,-7888,23292,-12828,11613,4535,32767
1043334,-10736,23688,-13252,10603,2628,32767
1043346,-13116,23764,-13108,10059,2178,32767
1043358,-17356,22716,-12908,9119,1628,32767
1043370,-20804,21020,-13032,9045,2229,32767
1043382,-23164,18952,-13712,9141,3820,30974
1043394,-23004,17364,-14996,9649,5225,27557
1043406,-20652,17812,-15168,10731,6977,25275
1043418,-19028,18956,-13964,10874,7553,24316
1043430,-20532,18428,-12480,10449,6629,22226
1043447,-22064,16004,-12104,9549,6489,17715
1043459,-20808,15312,-12360,9568,7535,16016
1043471,-21220,14352,-11820,9477,7784,15791
1043483,-22752,13848,-12052,8536,8123,14027
1043495,-22200,11656,-12444,8233,9712,11988
1043507,-21132,7500,-11592,8804,10756,12260
1043519,-20088,6264,-9024,7989,9836,11369
1043531,-19904,6948,-6840,7179,8153,9395
1043543,-18496,5796,-8200,6471,5562,8707
1043555,-16976,4548,-7028,6880,8454,5039
1043571,-16276,3632,-4700,5422,10551,4172
1043583,-15868,3732,-5736,5778,13415,3682
1043595,-14140,3600,-6220,5282,17120,1550
1043609,-13128,3080,-9408,4804,18168,2915
1043621,-11152,2184,-5312,3512,18620,3213
1043633,-8604,332,-8596,3306,19367,4874
1043645,-7208,280,-11188,2843,18588,6290
1043657,-5788,352,-11848,2709,16731,6328
1043669,-5048,792,-12356,1839,13850,5757
1043681,-4228,920,-12120,737,11628,4813
1043697,-3508,1280,-12372,-654,10130,3735
1043709,-1644,2060,-12056,-1808,9733,3470
1043721,236,2316,-12632,-3044,7272,6105
1043733,-3284,2132,-12392,-4181,4193,5219
1043747,-1632,2088,-13628,-4711,4710,4129
1043759,-1716,1760,-13456,-5141,4989,3175
1043771,-2380,1012,-14772,-5354,4939,2776
1043783,-1040,212,-14868,-5808,5600,2810
1043795,-1196,448,-14708,-6374,4674,3959
1043807,-1576,-552,-16356,-6673,3476,3932
1043823,-7748,-8720,-4348,-6438,-1323,2020
1043835,-88,-10168,-21776,-7626,-2126,1428
1043847,-628,6160,-15840,-11050,-44,4073
1043859,-8172,-5012,-22524,-8508,2430,7420
1043871,-4168,584,-18628,-8543,3843,8713
1043883,-6024,-108,-15976,-6963,8796,7067
1043897,-700,6616,-13656,-7710,12383,7755
1043909,-472,6048,-16572,-6632,14642,9577
1043921,-2372,3340,-13428,-6322,16252,11530
1043933,1952,3784,-14380,-7301,15365,9759
1043949,3236,3840,-14072,-7364,15835,9557
1043961,5480,5332,-10596,-7896,11610,7344
1043973,5824,7244,-14432,-9369,9494,4834
1043985,7084,8944,-16116,-9826,8049,4181
1043997,1144,12648,-11504,-10523,6777,3828
1044009,5892,11752,-15300,-11046,6243,3342
1044021,5788,10324,-14432,-10473,6419,3176
1044033,7348,11200,-14820,-9862,7058,3981
1044045,8372,11836,-14164,-9883,6958,5068
1044059,8804,11680,-13012,-10051,6929,6821
1044074,7324,10880,-11900,-10372,6893,8596
1044086,6284,9704,-11520,-10636,7297,9114
1044098,7036,10772,-12216,-10215,8367,10311
1044110,6392,11140,-11832,-10063,10050,10973
1044122,7676,11876,-10792,-10088,11693,11308
1044134,9104,12872,-11664,-10663,14061,11796
1044146,9248,13580,-11644,-10848,15296,11277
1044158,11240,12540,-12748,-11081,15653,9486
1044170,12404,13608,-13032,-11770,15911,8193
1044184,13104,14536,-13044,-12922,15065,6467
1044199,13024,15392,-12884,-13476,13712,4500
1044211,12384,15592,-14248,-14040,12451,2962
1044223,11708,17116,-12932,-14538,11977,2882
1044235,9768,17516,-13316,-14426,11450,2435
1044247,9016,18428,-13132,-13873,12845,2269
1044259,8176,18784,-12572,-13056,15551,1476
1044271,8696,18152,-12144,-12338,17302,555
1044283,9140,19676,-11936,-10857,17021,-64
1044295,9088,19840,-12160,-10110,18281,-635
1044307,8132,17240,-11508,-10402,20672,-2192
1044333,10584,19340,-10176,-8441,23014,-5582
1044345,12592,17420,-10024,-7743,23990,-6531
1044357,12148,14084,-9424,-9645,23710,-9509
1044369,12024,19640,-7504,-8362,23641,-12864
1044381,14448,21404,-7200,-6777,24974,-14978
1044393,16784,16492,-6260,-7844,24803,-14823
1044405,17148,15040,-4156,-8975,23552,-16897
1044417,17920,16728,-4400,-9253,24022,-16133
1044429,19856,18168,-3920,-8751,25557,-17094
1044441,22128,19144,-3960,-7945,27772,-17407
1044458,22000,17996,-4768,-8303,29585,-16610
1044470,23008,19744,-4920,-7818,28922,-18303
1044482,20468,20380,-4420,-6924,27965,-19181
1044496,20412,21656,-4400,-5301,28068,-19546
1044508,19996,20868,-4640,-4093,28144,-21605
1044520,19216,20732,-3680,-4868,28847,-23551
1044532,19708,21816,-2940,-3972,28160,-22462
1044544,19364,20572,-3796,-3447,26905,-22868
1044556,18144,18992,-4444,-3095,24743,-19873
1044568,14168,20060,-3868,-3198,22677,-22244
1044584,15844,19772,-3860,-1265,17763,-25216
1044596,15220,18564,-4704,-2075,13616,-24263
1044608,9320,18184,-3916,-4143,11189,-27054
1044622,9040,21672,-2072,-2295,10438,-28453
1044634,6772,20700,-1600,-1559,10312,-27838
1044646,4368,21500,-664,438,13434,-28453
1044658,4580,23884,-64,3043,17521,-28969
1044670,4360,23284,860,5239,21157,-28755
1044682,5088,22808,1576,6099,22061,-27706
1044694,6136,21496,1732,5873,20851,-29451
1044710,5308,23560,492,6438,19801,-28958
1044722,4136,21464,-120,5582,19254,-30871
1044734,4928,23012,-748,6525,17891,-32768
1044746,4596,21352,-20,6187,15042,-32768
1044758,4560,18448,-1308,6061,12940,-32768
1044770,3024,19844,-2344,5617,11632,-32768
1044784,-408,19740,-2780,6875,9566,-32768
1044796,2348,18224,-4024,7978,8606,-32768
1044808,-1232,17472,-3996,8728,8665,-32768
1044820,-1712,15480,-3136,8371,9249,-32046
1044836,-5876,14072,-3740,9755,8277,-29889
1044848,-7352,12740,-4168,10708,9462,-30601
1044860,-9908,10876,-5660,11627,12321,-32768
1044872,-11360,10288,-5344,13627,17098,-32768
1044884,-10892,9380,-7368,14776,19594,-32768
1044896,-8320,12016,-12864,17672,21828,-32768
1044910,-5708,15540,-18524,23790,24789,-32768
1044922,-4388,18544,-21952,28912,31294,-32768
1044934,-1332,17792,-21372,32767,32767,-32193
1044946,-784,14284,-21204,32767,32767,-26831
1044962,3324,10488,-20884,32767,32767,-20668
1044974,6496,6220,-22568,32767,32767,-17682
1044986,9940,2344,-26432,32767,32767,-15006
1044998,14784,1660,-28812,32767,30451,-9482
1045010,18804,5060,-29048,32767,24830,-3151
1045022,22328,10304,-29072,32767,16932,2580
1045034,23104,13716,-28992,32767,8901,8003
1045046,21480,14672,-27864,32767,2835,12048
1045058,19396,14704,-25896,32767,-880,15437
1045072,16480,15484,-24340,32767,-4021,19450
1045087,13680,18468,-22448,32767,-6096,23611
1045099,11216,21732,-21096,32767,-5692,26555
1045111,8264,24896,-20108,32767,-3992,29080
1045123,4956,26924,-17752,32767,-973,31317
1045135,1892,27244,-15308,32767,2629,32767
1045147,-992,26820,-13600,32767,7569,32767
1045159,-3176,26392,-11528,32767,13259,32767
1045171,-4320,25312,-9768,32767,19576,32767
1045183,-4076,24280,-8336,32767,26608,32767
1045197,-2792,22608,-8664,32767,32767,32767
1045212,-384,20736,-8812,32767,32767,32767
1045224,392,20224,-9748,32767,32767,32767
1045236,308,20988,-12084,32767,31352,32767
1045248,484,23608,-13296,30845,26341,32767
1045260,-540,26480,-14076,28046,21055,32767
1045272,-2896,28724,-13892,25792,14925,32767
1045284,-5736,30088,-12532,23680,9551,32767
1045296,-10760,31276,-11344,21788,6060,32767
1045308,-16104,31876,-9888,20304,5898,32767
1045320,-21936,31380,-8508,19505,8837,32767
1045337,-27664,27844,-6524,19647,19021,30692
1045349,-28596,23516,-5120,19391,25752,29093
1045361,-27072,19932,-5600,17810,29470,27976
1045373,-24300,17860,-6128,15584,30230,26439
1045385,-22968,15632,-6564,12911,27684,25018
1045397,-22040,13036,-5988,10358,23585,23494
1045409,-22900,10640,-4472,7229,18034,22034
1045421,-24084,8924,-4600,4478,13233,20053
1045433,-26932,8116,-5248,1786,9986,17319
1045445,-28484,8280,-7684,492,11565,14985
1045461,-27936,5832,-7656,625,15537,15658
1045473,-27860,5452,-6532,787,14028,13074
1045485,-24996,6728,-7704,-344,12294,7615
1045499,-24148,7404,-16200,-752,12775,2526
1045511,-24356,9668,-13100,-3253,5142,578
1045523,-19456,15476,-21104,5211,13090,-7755
1045535,-14572,10080,-12416,1193,20854,-6582
1045547,-12696,1816,-11436,3250,25996,2095
1045559,-13908,624,-12084,2112,23498,-956
1045571,-3536,-980,-10956,699,22273,-5028
1045587,1628,960,-13156,-1090,18323,-3437
1045599,9140,1332,-14220,-2774,12606,-588
1045611,6388,1064,-13956,-4673,6078,2997
1045625,1484,1284,-13540,-6767,-328,1500
1045637,2524,1044,-14396,-8191,-2573,1316
1045649,216,1576,-14140,-9146,-4061,2689
1045661,-848,1756,-14352,-9624,-5152,3383
1045673,-3288,2148,-13912,-9984,-5275,2376
1045685,-4832,1784,-14392,-9630,-4107,965
1045697,-4748,1936,-14628,-9352,-1418,263
1045719,-3480,3320,-12584,-8698,2102,881
1045731,-4752,5664,-13900,-9285,3418,808
1045743,-1752,-14700,8336,-7420,14157,2349
1045755,-388,2828,-8112,-11213,12469,783
1045767,3224,5704,-17268,-10192,15119,2624
1045779,4188,8112,-11916,-10961,15892,5661
1045793,8644,7688,-13288,-12077,12998,5593
1045805,9648,10796,-13716,-12311,9536,4135
1045817,7720,11980,-14300,-13301,8103,3010
1045829,6372,13796,-12572,-13683,4963,4773
1045844,8628,8444,-18652,-13545,1106,8661
1045856,8388,8840,-12740,-14222,-75,11668
1045868,2496,9796,-13636,-14763,-2521,10456
1045880,1392,11012,-13780,-14843,-3082,8860
1045892,344,11372,-11888,-14804,-2093,9412
1045904,-852,12780,-12188,-14068,958,10956
1045918,-504,13836,-11836,-13179,4700,12371
1045930,-2452,12588,-9824,-12487,7305,12691
1045942,-560,12784,-12816,-13218,10380,12082
1045954,500,12464,-10580,-13093,12578,11875
1045969,2384,14336,-10256,-13531,13466,10759
1045981,4108,15748,-12664,-14075,12111,9172
1045993,5260,15864,-13332,-15013,10749,7808
1046005,4484,18036,-12428,-16441,10026,5292
1046017,5208,19652,-12228,-17265,9790,3189
1046029,5588,22016,-12776,-17637,9335,2234
1046041,4160,22816,-12532,-18126,10770,272
1046053,5164,23588,-11460,-18673,12537,-1028
1046065,6612,24540,-11036,-18155,13228,-935
1046079,7500,22500,-10824,-17710,11112,-2154
1046094,7212,22532,-10560,-19760,7791,-5255
1046106,7776,24632,-9188,-19208,7314,-3926
1046118,5964,24440,-9136,-18567,7816,-4337
1046130,5076,21856,-9060,-19331,10601,-4826
1046142,5244,24552,-8908,-17434,13225,-5160
1046154,6148,23952,-7836,-15513,16040,-5196
1046166,7652,21160,-7396,-15144,16915,-5970
1046178,5724,20424,-7788,-14500,17114,-7424
1046190,3784,19824,-6908,-14052,18341,-9692
1046204,3084,16700,-7068,-12444,20375,-14999
1046219,5132,17572,-7596,-11551,23643,-19470
1046231,8080,21744,-9524,-10185,26063,-22249
1046243,11540,24412,-9748,-8531,27579,-24817
1046255,14336,25524,-8228,-8655,29206,-25409
1046267,17100,26652,-6624,-9519,31140,-24053
1046279,18360,27740,-6220,-9410,29716,-22607
1046291,15920,25456,-4580,-9666,27605,-24617
1046303,15936,27684,-4832,-9789,29131,-24857
1046315,18768,29752,-5168,-9043,30654,-20310
1046327,17032,26512,-5604,-9123,31675,-17361
1046344,16136,26464,-6332,-9403,29047,-17240
1046356,17812,27512,-5432,-7176,28062,-14124
1046368,13208,21596,-7984,-6891,28162,-12206
1046380,13092,23244,-7644,-6697,25011,-11644
1046392,11484,23552,-7900,-4849,24297,-11471
1046404,10688,23144,-8912,-2321,21276,-11917
1046416,8572,19172,-9320,-398,17735,-11925
1046428,5464,17668,-7996,-483,15183,-12607
1046440,5828,19660,-6656,624,12457,-14251
1046452,4888,19524,-6980,2432,11888,-12488
1046467,1440,17656,-6292,857,13499,-12643
1046479,1280,19392,-5848,2709,14426,-18627
1046491,3764,20980,-5512,4033,14195,-20840
1046505,280,21048,-4456,3347,13959,-20348
1046517,-1452,22512,-3624,3835,15227,-21744
1046529,-2180,19396,-4436,4597,18506,-25804
1046541,-372,21444,-5968,7105,21242,-26826
1046553,-636,20268,-6344,8034,23478,-25512
1046565,-2012,21404,-7256,9595,24235,-27632
1046577,1384,19820,-8544,11307,24196,-29987
1046592,3104,18760,-9968,13325,21755,-26939
1046604,1808,19188,-11732,13851,17057,-29442
1046616,1376,17244,-11780,15140,13406,-32136
1046630,412,15936,-12612,16854,8482,-32704
1046642,-1836,13996,-14688,17203,4961,-32768
1046654,-3732,13152,-16108,18584,7069,-32459
1046666,-6408,11932,-16524,20265,10995,-32638
1046678,-8544,12064,-18184,23456,15780,-32768
1046690,-6444,13196,-18776,27259,23298,-32768
1046702,-3204,12148,-18356,31513,28779,-32768
1046717,4624,13160,-17336,32767,32276,-32768
1046729,8032,17316,-16564,32767,32378,-32768
1046741,14208,18404,-14640,32767,32767,-28938
1046753,24608,13408,-18508,32767,32767,-22962
1046765,32492,3376,-18900,32767,32767,-14185
1046777,32767,-2732,-20132,32767,26327,-7474
1046791,32680,-1596,-24284,32767,6647,-3191
1046803,32244,3196,-27276,32767,-10275,3606
1046815,27576,9152,-26568,31716,-14504,4883
1046827,24584,11284,-22328,32039,-7325,7050
1046842,22744,9100,-21316,32767,3129,17947
1046854,22848,9812,-22624,32767,4498,28797
1046866,23564,15768,-23312,32767,5763,32767
1046878,21400,20728,-21300,32767,7148,32767
1046890,17696,23460,-19692,32767,7135,32767
1046902,14592,26292,-18892,32767,7388,32767
1046916,11004,30072,-18620,32767,10044,32767
1046928,7044,31896,-17076,32767,14029,32767
1046940,4056,31372,-15720,32767,18485,32767
1046952,2868,30340,-14620,32767,23322,32767
1046967,2232,30208,-13032,31676,29882,32767
1046979,1500,29720,-12988,30174,32767,32767
1046991,2292,28940,-13776,27994,32767,32767
1047003,4372,27568,-16032,25288,32767,32767
1047015,6396,27876,-17876,22887,32767,32767
1047027,7284,30048,-19836,20630,31658,32767
1047039,5460,32767,-20984,18382,27327,32767
1047051,1348,32767,-21948,16188,22201,32767
1047063,-2916,32767,-22948,14392,17309,32767
1047077,-8300,32767,-23156,12842,13098,32767
1047092,-15192,32632,-23620,11112,9357,32767
1047104,-18156,30312,-22736,10407,8565,32767
1047116,-19588,28252,-22548,10016,7385,32767
1047128,-20220,27380,-21912,10072,7013,31285
1047140,-22080,27292,-19380,10432,7398,27804
1047152,-24256,25976,-16156,11276,9370,24376
1047164,-27136,23848,-13692,12284,13044,21409
1047176,-28464,20268,-13344,13422,18020,20423
1047188,-30136,17544,-10676,13696,22849,19268
1047202,-27532,13724,-8816,13635,26699,19184
1047217,-25916,8624,-7028,12549,29052,14595
1047229,-23408,6832,-6720,10883,29569,10891
1047241,-22688,4968,-7384,8820,30359,7665
1047253,-20572,2172,-5928,7276,29356,6565
1047265,-20500,1716,-5376,4496,25722,4999
1047277,-20876,1948,-5840,2817,23491,3522
1047289,-19100,1520,-6072,994,23078,162
1047301,-16912,-92,-6776,1127,20986,-1842
1047313,-12572,-1748,-8616,-466,23451,-5772
1047327,-6168,340,-16160,-861,21533,-8090
1047342,3084,-2004,-16544,153,23863,-7717
1047354,5392,-1756,-14856,745,19903,-1560
1047366,14140,-3912,-15936,-1865,12014,-858
1047378,6304,-6004,-13456,-3876,6459,-4960
1047390,7068,-5140,-13880,-5766,-200,-7503
1047402,7848,-3724,-14852,-7859,-7462,-6862
1047414,7024,360,-15640,-8793,-12350,-5012
1047426,3124,3268,-14968,-9952,-16922,-5569
1047438,260,3408,-14908,-10888,-19787,-6773
1047450,-4128,1480,-13004,-11719,-21483,-6639
1047465,-6856,200,-12236,-12063,-20065,-6824
1047477,-7340,1728,-11904,-11479,-16545,-7437
1047489,-7332,4084,-11768,-11493,-13575,-7086
1047503,-4984,3664,-13592,-11653,-9123,-5646
1047515,-3852,3108,-13568,-10184,-5805,-5181
1047527,-2952,1008,-14372,-10747,-3424,-5940
1047539,-1796,-2464,-14064,-11567,-1814,-8922
1047551,-7272,-636,-5784,-11108,-2103,-9784
1047563,1820,6360,-9224,-12861,-883,-7449
1047575,1948,4296,-11968,-10503,-2675,-5722
1047590,76,5840,-14640,-11608,-5580,-5348
1047602,-1844,5464,-16680,-12076,-4956,-4340
1047614,3188,16,-14500,-14336,-4788,-5563
1047628,4068,5192,-8712,-15560,-3596,-3807
1047640,-7272,2864,-14120,-16314,-2115,-3606
1047652,-4988,4588,-14172,-15694,-3474,-3965
1047664,-1808,4384,-9908,-17251,-4426,-2378
1047676,3468,5040,-10144,-17479,-3134,42
1047688,1936,7312,-14624,-18388,-2186,1205
1047700,-2080,9588,-14352,-18182,-1441,1730
1047715,-524,13608,-14332,-17561,2772,104
1047727,4304,15904,-13092,-16766,5398,-74
1047739,6372,12716,-13448,-16673,4513,243
1047751,8856,11776,-12684,-16351,2487,1450
1047763,6848,13976,-10128,-17139,534,1428
1047775,5760,15916,-9424,-17872,909,1579
1047789,5368,12956,-6360,-17645,4620,5183
1047801,5628,11400,-7260,-18053,7893,7323
1047813,6280,11872,-6476,-18931,13058,8978
1047825,6776,14124,-7908,-18437,17833,12045
1047840,8764,15592,-10844,-18845,24709,13626
1047852,11072,17744,-9832,-18930,30824,13205
1047864,18112,17472,-14644,-17839,32767,15635
1047876,18064,19184,-12712,-18016,32767,16778
1047888,22376,22104,-12988,-18751,32767,18225
1047900,27204,21180,-14752,-19818,32767,20276
1047914,26680,22888,-19372,-21008,27235,20185
1047926,25360,19584,-16492,-22288,17276,16848
1047938,22460,21436,-14236,-25524,6376,14929
1047950,18060,23748,-14548,-26277,-1021,13713
1047965,12412,26308,-11364,-26644,-5613,11892
1047977,8744,28628,-10964,-25771,-7928,11977
1047989,5432,28796,-9832,-23754,-8409,13766
1048001,3352,27360,-9608,-22964,-8888,16907
1048013,1740,26864,-8684,-20948,-6223,17713
1048025,1836,27136,-7196,-19412,-2881,17879
1048037,1916,26036,-7212,-17349,-1417,18280
1048049,2504,23756,-5928,-16568,-1114,17388
1048061,1412,22296,-4740,-18538,-1737,16020
1048075,1900,20304,-5464,-17596,-1033,13253
1048090,1452,20136,-6444,-16481,686,7956
1048102,1400,20520,-4772,-15034,1246,3442
1048114,2152,19520,-4044,-13949,1283,-1995
1048126,5164,20068,-3876,-12817,41,-3885
1048138,3912,23892,-3716,-11442,-1625,-1978
1048150,1416,22072,-3328,-11851,1290,-1681
1048162,1392,19332,-2900,-11827,6599,-3930
1048174,4220,20036,-2852,-10276,11186,-4821
1048186,5904,22656,-2572,-8346,13414,-4299
1048200,6828,22300,-2564,-7312,16187,-5176
1048215,7024,21296,-2452,-5865,18389,-7761
1048227,7860,20456,-2132,-5320,19031,-9083
1048239,9140,20836,-1624,-4333,20935,-10744
1048251,10936,22128,-1444,-3397,22227,-10350
1048263,11388,21440,-844,-3568,23885,-11476
1048275,12272,20080,696,-2778,23648,-11379
1048287,11936,19660,1308,-2155,23356,-12403
1048299,12268,18756,2016,-1608,24111,-12596
1048311,11860,17280,2180,-695,24893,-12880
1048323,12160,17156,3616,-82,25821,-13600
1048340,12392,16152,5992,82,26196,-11725
1048352,11064,14600,7504,-269,26025,-12227
1048364,11000,14352,6924,-465,26684,-14352
1048376,13608,16568,6864,-766,28005,-14705
1048388,15196,17228,4796,-318,27866,-13300
1048400,14240,17180,5032,-1358,26059,-13767
1048412,15156,18092,5500,-1818,22896,-16997
1048424,17224,18412,4896,-2410,19620,-17074
1048436,16864,18336,4436,-2248,16284,-15483
1048448,13344,18384,5272,-2492,13467,-16211
1048463,9676,18468,5780,-3086,11782,-21590
1048475,8100,19116,5432,-2063,11699,-23257
1048487,6864,21208,5456,-1599,13128,-24867
1048501,7120,24624,4140,-647,16918,-23832
1048513,6900,26652,3764,837,20579,-20679
1048525,6704,27024,3488,2645,23427,-17295
1048537,4712,25364,3824,4150,25247,-16527
1048549,3812,22628,4704,4395,26769,-17321
1048561,2716,22380,4420,4777,26860,-17175
1048573,3352,22416,3276,5388,25876,-14830
1048588,2268,21644,2632,6750,23045,-11851
1048600,352,21460,2156,6448,19049,-12322
1048612,176,20644,2428,5732,14855,-14339
1048624,-1848,20360,2080,6036,12782,-16132
1048638,-5480,19728,1868,5799,11090,-18845
1048650,-7132,18400,1868,5450,9909,-18972
1048662,-10548,18380,1540,4631,10203,-20040
1048674,-11680,19076,744,4740,12440,-20914
1048686,-13432,19624,1052,5716,16201,-20375
1048698,-12668,19480,-52,7200,19213,-20050
1048713,-12304,18024,608,8580,21430,-23700
1048725,-11240,18608,-920,11001,22546,-24136
1048737,-9868,17736,-180,12794,22781,-24982
1048749,-9500,17128,-1168,14012,22418,-26547
1048761,-7536,17432,-952,14897,21952,-28995
1048773,-6496,17980,-1980,16542,22785,-28957
1048787,-6732,17504,-4600,19888,26154,-29211
1048799,-6624,16560,-5668,23091,30258,-29410
1048811,-5788,15724,-8072,26431,32767,-29157
1048823,-3296,15776,-10520,29822,32767,-29104
1048838,2884,17332,-11076,32767,32767,-26541
1048850,7832,16728,-11768,32767,32571,-23849
1048862,13252,13248,-12224,32767,27775,-21258
1048874,15072,8856,-14572,32327,19758,-20481
1048886,17808,5592,-16244,29744,10470,-17297
1048898,17656,3428,-16916,28772,3770,-13003
1048912,15740,-1012,-17516,27035,-3955,-7117
1048924,12108,-596,-20956,25976,-7491,-3353
1048936,7360,3668,-24820,26410,-9698,-1569
1048948,4860,7944,-28100,27738,-8864,805
1048964,2364,13200,-27440,30164,-3048,2629
1048976,2260,13732,-26732,31754,3522,2376
1048988,3856,11996,-25884,32767,9079,5245
1049000,4912,10176,-26328,32767,12943,10370
1049012,5660,10036,-25248,32767,14950,15220
1049024,7304,11872,-24616,32767,16115,18860
1049036,9636,13420,-22104,32767,17415,22229
1049048,10560,15248,-19136,32767,17077,26577
1049060,9332,17400,-17508,32767,14881,30302
1049074,6760,20976,-15896,32767,12243,32767
1049089,3640,25048,-14128,32767,10655,32767
1049101,164,27432,-11560,32767,10670,32767
1049113,-2376,26808,-10344,32767,13470,32767
1049125,-3520,24824,-9096,32767,19033,32767
1049137,-3828,22692,-8284,32767,25126,32767
1049149,-2888,21420,-9844,32767,29513,32767
1049161,-2328,21252,-10928,32767,31517,32767
1049173,-2564,20980,-10472,30955,31470,32767
1049185,-1760,21740,-10772,28250,30892,32767
1049199,-1576,24016,-11112,25255,30378,32767
1049214,-4996,25168,-10584,22404,27692,32767
1049226,-7644,24576,-13000,20096,25041,32767
1049238,-8428,24720,-15784,18053,23372,32767
1049250,-10556,26684,-14772,16058,20801,32767
1049262,-14412,26960,-14304,13865,18169,32767
1049274,-19196,24924,-14260,12011,16433,32767
1049286,-22308,23128,-14728,10599,14189,32767
1049298,-21712,22728,-15156,9874,13735,28611
1049310,-20996,21976,-14808,9328,13587,27316
1049322,-23376,19836,-12332,8132,12497,26299
1049339,-25392,15160,-10248,5740,10090,21977
1049351,-25300,12236,-10444,4606,8823,18835
1049363,-23456,10360,-9748,4053,7430,16383
1049375,-22012,9296,-7676,3418,5285,15081
1049387,-22104,8332,-6400,2301,4142,12847
1049399,-23996,4868,-4636,1037,3404,10122
1049411,-24800,6536,-5188,560,4525,7960
1049423,-25080,3312,-5508,-171,7164,5380
1049435,-24076,1492,-5848,164,9301,5539
1049447,-23756,772,-6400,-373,9318,2629
1049462,-19308,2804,-6776,-900,11747,-2557
1049474,-18676,2216,-8652,-1931,13065,643
1049486,-16244,7132,-11768,-203,11785,748
1049500,-14688,5324,-10692,323,17421,-2218
1049512,-7384,-1400,-12632,1327,19801,16
1049524,-9268,-3512,-11544,193,18474,2208
1049536,-6196,-3168,-12072,-1800,15269,-1799
1049548,-1832,-2896,-12036,-3034,12611,-2996
1049560,-1000,-784,-14388,-3168,10905,-2825
1049572,1868,1180,-15444,-4750,7052,1475
1049587,-208,2648,-16612,-5401,4552,-2550
1049599,1496,3824,-16888,-5824,3129,-3790
1049611,1824,4032,-16840,-6639,1415,-2545
1049625,2072,5008,-17080,-6821,-890,-2220
1049637,1888,4348,-17264,-7893,-3438,-1751
1049649,908,3764,-17420,-8257,-5653,-795
1049661,-2576,3884,-16516,-8712,-6666,-1729
1049673,-1952,3816,-16452,-8457,-7142,-2362
1049685,-3824,2168,-16688,-8538,-6924,-2177
1049697,-7164,-4,-15352,-9221,-5077,-1642
1049712,-14124,32376,-24552,-8096,1196,-1402
1049724,-15440,3932,-32768,4676,466,546
1049736,-2472,-108,-17508,-10423,8076,-1179
1049748,-904,8152,-11120,-7988,7893,1678
1049760,-1684,3504,-13664,-6378,9281,2212
1049772,496,1932,-14528,-7556,9583,4388
1049786,-468,5440,-12404,-8895,9768,5721
1049798,-1864,4452,-13704,-8641,7748,4513
1049810,820,5940,-13960,-10383,8265,3326
1049822,1544,7676,-14784,-10259,6723,3617
1049837,3084,9184,-15364,-11119,6582,4031
1049849,3844,8656,-14244,-11808,6237,4031
1049861,2492,11096,-13600,-12363,5980,3391
1049873,3108,12828,-15624,-12229,6363,3178
1049885,4276,13980,-14872,-12346,6481,5030
1049897,3744,14540,-14120,-12801,5207,5942
1049909,3916,14368,-11868,-13858,4866,6366
1049921,4072,13828,-13816,-14320,4411,7061
1049933,4956,11076,-13528,-15093,3218,7423
1049947,3864,12252,-10952,-15853,1647,7839
1049962,1716,13312,-10260,-16394,1618,8210
1049974,1556,13292,-10936,-16820,2318,8336
1049986,1256,14796,-11084,-16755,2404,7498
1049998,868,15376,-12032,-17144,3201,5757
1050010,1332,16832,-12612,-17455,4958,3249
1050022,1568,17252,-11432,-17785,6390,827
1050034,2584,16796,-11304,-18397,7614,-512
1050046,3080,16856,-10988,-18252,8670,-1038
1050058,4136,17588,-10848,-17996,9578,-184
1050072,3584,17824,-10512,-18735,9827,3
1050087,5896,19612,-10324,-19246,12008,-531
1050099,4816,20860,-9860,-19171,13652,-36
1050111,4496,21852,-10540,-19300,14946,-1687
1050123,6128,20992,-11156,-18206,15000,-3279
1050135,6976,21152,-10288,-17644,16160,-4957
1050147,7788,20084,-10596,-17994,18376,-5719
1050159,9332,19852,-11096,-17255,18090,-4463
1050171,7348,19048,-11240,-16946,17361,-4073
1050183,5812,18976,-10496,-16646,18413,-6818
1050195,6928,19520,-9188,-15344,19295,-9428
1050212,8868,21132,-8368,-13490,20242,-10497
1050224,9600,20288,-8944,-12950,19809,-11127
1050236,8744,21184,-9380,-12321,20383,-10334
1050248,8808,22576,-9476,-10347,20826,-11790
1050260,8528,21676,-10252,-10186,21984,-12622
1050272,10196,21556,-10452,-10540,22943,-14490
1050284,10976,22700,-9820,-9353,21687,-15082
1050296,10564,22572,-10564,-9081,22944,-15882
1050308,11364,24056,-10336,-7763,23697,-16474
1050320,12028,25428,-10192,-7535,23250,-18029
1050335,12344,23792,-10640,-7994,23150,-19167
1050347,11908,23888,-9988,-7029,21366,-19421
1050359,11668,23180,-10484,-5871,19463,-19171
1050373,10028,22324,-9472,-4986,19313,-20073
1050385,9028,22060,-9096,-5028,17857,-21101
1050397,9384,23616,-9600,-4004,16842,-21885
1050409,8420,22324,-9128,-2592,16586,-20375
1050421,7108,21220,-8088,-1781,14970,-18662
1050433,6256,20496,-7372,-1196,13739,-19040
1050445,6936,21804,-7144,-1516,12700,-18692
1050460,5336,18948,-6060,-1237,9577,-16165
1050472,3532,19588,-6468,-1226,6597,-17308
1050484,2236,20400,-6980,-1815,6439,-18765
1050498,-1384,21972,-6608,-1141,6307,-19100
1050510,-2148,21012,-6816,-620,7559,-20811
1050522,-1492,20648,-6528,-522,8767,-20771
1050534,-3408,20244,-5932,-342,8838,-19136
1050546,-4704,19404,-5544,-584,8296,-20284
1050558,-5920,19404,-6300,-628,10969,-21458
1050570,-6892,18632,-6384,892,14254,-21161
1050585,-7340,19736,-6852,2342,18167,-23819
1050597,-8012,20416,-8160,4100,21992,-26919
1050609,-5860,19416,-9888,8297,24455,-26436
1050621,-9208,18052,-10568,12210,27163,-26157
1050633,-8288,15964,-11144,16057,29776,-28631
1050645,-6364,15444,-12248,19244,31834,-29614
1050659,-5264,16244,-13904,23581,32767,-30059
1050671,-3328,15044,-14048,27727,32767,-30205
1050683,-1584,15328,-13364,29651,32767,-30956
1050695,2492,16244,-13664,32148,32767,-30293
1050710,8236,17624,-14640,32767,31713,-26320
1050722,14200,17028,-14904,32767,29197,-22308
1050734,20300,15704,-14056,32767,25085,-18227
1050746,25696,12780,-14748,32767,19262,-13657
1050758,30080,7364,-14244,32767,13747,-8086
1050770,28740,1872,-14096,32767,3413,-3912
1050784,26124,-424,-15268,30374,-9674,-2911
1050796,22540,-948,-15408,27768,-19274,-3668
1050808,18192,48,-16720,25065,-27784,-2041
1050820,19624,4324,-22384,23853,-28811,3223
1050835,15612,11040,-25672,25872,-22543,8354
1050847,12396,13976,-24244,27768,-16297,7064
1050859,11088,13472,-21424,29120,-11270,9060
1050871,9908,11760,-20532,30293,-6275,13568
1050883,8240,10676,-19716,31876,-1236,18074
1050895,7436,11004,-18780,32767,2197,22200
1050909,7176,12964,-17608,32767,3562,26207
1050921,6132,14680,-15968,32767,3856,28347
1050933,4396,16708,-14092,32767,3807,29456
1050945,2996,18976,-12768,32767,4342,30393
1050960,1364,21724,-11068,32767,6158,31789
1050972,116,23580,-10064,32767,8874,32767
1050984,-1100,24892,-10576,32767,13354,32767
1050996,-1912,23972,-10556,32767,18718,32767
1051008,-3424,22036,-10188,32767,23598,32767
1051020,-4828,20216,-10500,32767,27703,32767
1051032,-4344,19236,-11316,32714,32161,32767
1051044,-2336,19788,-12232,31442,32767,32767
1051056,-1224,21260,-12956,29355,32767,32767
1051070,-1204,22664,-14316,25869,32767,32767
1051085,-1424,23412,-16400,21990,30799,32767
1051097,-2228,22980,-18696,19376,27278,32767
1051109,-3912,22748,-18976,16958,22337,32767
1051121,-8128,23004,-17316,13526,14963,32767
1051133,-12532,22412,-16404,10118,8199,32767
1051145,-15984,21940,-15840,8404,4066,32767
1051157,-17588,21556,-14772,8611,2081,32559
1051169,-16980,20856,-13032,8933,891,31569
1051181,-18080,19776,-11596,8288,-1890,29448
1051195,-19388,18560,-11364,7403,-2609,24154
1051210,-22412,18688,-10372,7818,2522,19119
1051222,-24840,18284,-7768,7493,6707,16727
1051234,-27092,16760,-4820,7153,9856,16145
1051246,-27268,13652,-3828,6576,12972,16710
1051258,-25548,6612,-3972,6067,14897,13123
1051270,-21764,6100,-6676,3872,14464,8446
1051282,-22264,5872,-5712,3439,11827,6448
1051294,-21496,10668,-8220,1947,10829,4844
1051306,-22128,6352,-5916,552,10128,1139
1051318,-21076,7852,-7796,791,11453,805
1051335,-21688,3596,-9052,13,12016,3301
1051347,-20892,-148,-10628,-54,15767,-1417
1051359,-16004,-2352,-13544,1214,19209,-3735
1051371,-12964,-2912,-11956,1463,21552,-3642
1051383,-10248,-1896,-11288,624,21111,-4905
1051395,-4040,-1040,-11948,-199,19857,-6203
1051407,1120,-1868,-12496,-1790,13730,-4653
1051419,-1436,-2776,-11496,-4636,6678,-3891
1051431,8,-4700,-10336,-6786,2379,-1662
1051443,-1112,-3680,-12548,-7962,1150,-2770
1051458,-952,-1508,-13280,-8557,35,-4055
1051470,-872,-988,-14292,-10127,-3097,-3889
1051482,-664,1360,-15728,-10787,-5483,-2369
1051496,-912,5092,-16124,-10276,-6833,-2862
1051508,-1280,7292,-15996,-10146,-7315,-3223
1051520,-1260,7704,-17232,-10393,-7787,-3475
1051532,-9008,10376,-13356,-9889,-7414,-5521
1051544,-3600,7680,-17900,-8584,-4813,-8413
1051556,-2936,4372,-11008,-9298,-2195,-4946
1051568,-4716,9328,-25120,-7066,-2903,-4753
1051583,-7264,7028,-11492,-12792,-1379,-3966
1051595,-2020,2480,-16220,-8674,3810,-2404
1051607,-6076,4756,-7704,-9846,2920,-864
1051621,-3692,3556,-9088,-10385,4622,-1393
1051633,-1172,3940,-9784,-11525,5720,-1759
1051645,-1788,6604,-11972,-12027,5124,-1849
1051657,-1032,8808,-13140,-12680,6056,-1946
1051669,-356,8952,-14008,-12574,6720,-1604
1051681,420,8768,-11268,-13551,8011,-1883
1051693,920,9224,-13420,-13621,9287,-1384
1051708,428,8964,-11916,-13804,9844,-87
1051720,1540,10960,-11412,-14069,10882,1459
1051732,3228,11536,-10312,-14431,10315,1893
1051744,2648,12908,-8596,-15699,8889,1137
1051756,5224,14084,-10948,-16322,8393,814
1051768,5644,15712,-8352,-17513,8003,1540
1051782,7452,15800,-9228,-18416,7136,2168
1051794,8732,17516,-8236,-19083,6386,3960
1051806,8184,18304,-7164,-19969,5766,5088
1051818,6436,21064,-6404,-20849,5505,5792
1051833,5324,22444,-5888,-21196,7524,6261
1051845,5232,22944,-6952,-20791,8992,4835
1051857,7356,21552,-9004,-21615,10067,2136
1051869,7400,22516,-9268,-21429,10696,1132
1051881,6228,25740,-10012,-21776,10646,3546
1051893,3396,26796,-11136,-22521,11775,4624
1051905,1932,26904,-11532,-23037,16014,6329
1051917,1604,25408,-11444,-22044,21283,4963
1051929,4304,28828,-12472,-19163,24194,6004
1051943,5592,31380,-12108,-15713,29943,5327
1051958,8728,24500,-10528,-16050,32767,1259
1051970,14352,25908,-12788,-17287,26065,1961
1051982,10804,30252,-13980,-18781,21464,4474
1051994,7740,24988,-15356,-17628,20119,-1136
1052006,9212,22304,-14560,-18030,17762,-5915
1052018,4736,22440,-14836,-18473,17821,-5717
1052030,9364,20820,-13772,-16941,17488,-6353
1052042,12944,21324,-13440,-15022,18311,-4923
1052054,9464,17740,-15264,-12541,17825,-4208
1052068,8584,16864,-10980,-10817,12998,-14642
1052083,12052,20636,-14172,-6169,14051,-12388
1052095,9684,14528,-12368,-5045,12987,-15637
1052107,10860,15512,-13496,-8662,10285,-17927
1052119,9036,16992,-10984,-8507,10156,-17095
1052131,7332,16140,-8124,-6427,11708,-17710
1052143,9996,16232,-8268,-6381,13776,-17410
1052155,10784,17864,-7572,-5415,16237,-15248
1052167,9656,19336,-6268,-4697,15739,-15968
1052179,7356,20096,-5652,-4498,15214,-19788
1052193,8116,21964,-5360,-3822,14922,-23249
1052208,8432,21964,-5384,-4183,16155,-24441
1052220,7756,25992,-5304,-3044,15984,-23141
1052232,5688,23752,-5524,-2744,17040,-22161
1052244,5020,22516,-4760,-2152,17965,-24790
1052256,6100,24524,-4424,-943,16192,-25196
1052268,5728,24976,-5632,-1320,15496,-24103
1052280,4300,24116,-5792,-24,16083,-24536
1052292,4428,23936,-5144,1335,14499,-25096
1052304,4688,21788,-4976,1303,13158,-25852
1052316,3000,23496,-5432,1387,11236,-26431
1052333,1712,22976,-4872,2756,9255,-24924
1052345,-476,21876,-4404,3896,8864,-23170
1052357,-1964,22020,-3868,4298,10362,-24090
1052369,-1152,20900,-2652,4474,11458,-25177
1052381,-1748,21004,-1956,4637,11169,-25081
1052393,-3332,22540,-3940,5368,13048,-22830
1052405,-5828,21056,-3044,6522,14658,-22768
1052417,-5316,20212,-3024,7357,13975,-23591
1052429,-5996,20552,-2872,7824,14603,-22756
1052441,-6952,18832,-1684,6998,14798,-23141
1052456,-7600,17248,-1960,5323,15202,-22711
1052468,-6876,17184,-3708,5104,18500,-23107
1052480,-7084,18600,-3516,4121,18663,-23147
1052494,-6172,18740,-6800,5002,20122,-23821
1052506,-6412,17168,-7440,6192,21661,-27443
1052518,-6300,16460,-9568,8354,22472,-28871
1052530,-4580,14396,-11704,11036,22630,-27550
1052542,-5136,15080,-13292,12345,22256,-25034
1052554,-5780,14256,-14148,15135,23702,-25371
1052566,-6272,13836,-14000,16608,26223,-26481
1052581,-3596,13696,-15480,19922,26836,-27276
1052593,-268,13828,-15812,21857,26901,-25372
1052605,3604,13952,-15632,23371,26012,-23717
1052619,7396,12896,-15988,23446,21853,-22776
1052631,8552,10924,-18392,23906,19076,-21033
1052643,11976,8284,-20248,25331,16647,-17661
1052655,17564,5176,-19732,26180,14837,-14914
1052667,20752,3436,-19496,27487,14116,-13323
1052679,23224,1564,-16276,27108,11002,-11274
1052691,20556,-2900,-18536,25094,4495,-6079
1052706,20380,-1376,-19416,24463,-1586,3015
1052718,17980,2080,-20648,23893,-6587,8319
1052730,14252,5152,-20784,23587,-8799,10170
1052742,9196,6832,-19844,23305,-8512,11103
1052754,6020,7384,-18344,24081,-5143,12255
1052766,4428,7384,-17688,25745,1262,14083
1052780,4164,6532,-17748,27769,9130,18140
1052792,6440,6112,-17336,29319,13574,22510
1052804,7544,6784,-16604,29905,15176,26114
1052816,6788,8416,-15632,29442,14294,28134
1052831,5196,11608,-13968,28149,11458,29585
1052843,4296,13528,-12972,26955,9371,31033
1052855,3048,14768,-12692,26165,7163,32767
1052867,268,15600,-11516,25357,5301,32767
1052879,-1688,15712,-10792,24546,5146,32767
1052891,-3172,15572,-10152,24133,6755,32767
1052905,-4232,15440,-9536,24234,9744,32767
1052917,-5288,15672,-9228,24280,12179,32767
1052929,-5704,16096,-10504,23937,14545,32767
1052941,-6812,16588,-10120,23748,16908,32767
1052956,-8120,15756,-9048,22669,20547,32767
1052968,-8012,14008,-8644,21448,23986,32767
1052980,-6672,12916,-9104,20454,25986,32767
1052992,-6648,13320,-8420,19002,24829,32767
1053004,-7484,13152,-8116,16665,22052,32767
1053016,-7276,13120,-9484,14189,19234,32767
1053028,-7544,13936,-10500,12241,16947,32767
1053040,-8432,14112,-11056,10757,15409,32767
1053052,-9304,13904,-12264,9648,14362,32767
1053066,-8728,14908,-13820,9001,13725,31961
1053081,-9632,16852,-13588,8027,11633,30761
1053093,-11780,17120,-13596,7059,10353,28740
1053105,-12308,15832,-13628,6363,10470,27493
1053117,-13128,13712,-14188,6013,10448,27755
1053129,-13372,12664,-15512,6196,10038,27074
1053141,-13132,13212,-15456,5957,8388,25556
1053153,-12924,12744,-15784,5505,6592,24511
1053165,-14672,11004,-14760,4565,4000,23827
1053177,-17400,8428,-13736,3424,1808,22097
1053191,-19748,5108,-12916,2738,770,19529
1053206,-19708,2548,-13344,3632,3643,17205
1053218,-17896,2156,-13956,4360,6332,16136
1053230,-15660,3152,-14984,4778,8378,14655
1053242,-12660,4924,-14848,5123,9569,13159
1053254,-10728,5716,-12592,4980,9589,13015
1053266,-10984,3588,-9980,4276,8214,13290
1053278,-12036,1560,-9792,3029,6189,13246
1053290,-12552,488,-10484,2248,4993,11754
1053302,-10892,380,-10148,2074,5299,10143
1053314,-11368,1044,-10664,1504,5948,9406
1053331,-12204,1044,-10056,824,6691,8042
1053343,-12840,1872,-11656,1497,7616,7135
1053355,-11120,2220,-9700,1614,8638,6403
1053367,-13308,1332,-14504,2295,7917,6190
1053379,-8316,1148,-9488,1471,9966,5596
1053391,-11284,1780,-8732,1898,11015,6655
1053403,-9548,4756,-9888,1304,10192,2964
1053415,-6232,6184,-9700,1032,11231,4010
1053427,-6180,6376,-10692,710,10882,4288
1053439,-5336,4580,-10548,-483,10284,3598
1053455,-4936,2636,-11480,-1990,9007,2186
1053467,-1984,1728,-11620,-2208,8431,2637
1053479,-1772,1020,-11804,-2780,8357,2549
1053494,-6828,632,-12688,-2752,7489,2385
1053506,-5176,-272,-13196,-3548,6832,3142
1053518,-6028,4376,-9660,-4278,6710,2686
1053530,-4088,-824,-14756,-3578,5572,2602
1053542,-4648,-428,-14196,-4052,5797,1846
1053554,-3132,1236,-12780,-4346,5349,2632
1053566,-2592,-23316,-816,-5206,7131,2861
1053588,-1260,4984,-14504,-7232,8698,-746
1053600,-1892,-124,-12244,-5895,10164,-28
1053612,-1824,6360,-11412,-5875,12562,-854
1053624,4148,2004,-12032,-7206,11869,2647
1053636,2540,3936,-11512,-8367,10048,2850
1053648,2780,3232,-12956,-8899,10384,-1040
1053662,3984,5880,-14828,-9677,10042,1247
1053674,4968,8140,-15848,-10177,9616,3939
1053686,4800,7812,-18672,-10670,8525,2978
1053698,3884,7060,-16944,-11409,7918,2865
1053715,4188,7520,-14208,-11572,7214,2254
1053727,4772,7296,-16084,-12433,7495,3766
1053739,5496,6060,-14188,-11895,6029,6825
1053751,1708,7684,-13704,-11829,6545,6085
1053763,2524,7940,-13560,-12409,9264,3852
1053775,3332,7544,-13336,-11210,11600,4444
1053789,3064,5996,-12780,-11046,13434,5377
1053801,3784,5844,-10504,-11307,15854,6461
1053813,6380,5348,-10184,-11590,18498,8310
1053825,7876,6108,-8564,-11592,20333,9309
1053840,10920,7268,-9204,-11620,22820,8998
1053852,14244,7012,-10012,-12296,24379,6633
1053864,18148,7848,-9224,-13067,24569,4989
1053876,20348,8920,-8928,-14643,24144,5172
1053888,23828,8876,-10300,-15441,23200,6309
1053900,23764,10292,-9732,-17444,21199,6356
1053912,24844,12052,-8844,-18869,19114,7936
1053924,24844,14224,-9532,-19430,15919,10149
1053936,24376,15564,-9768,-20026,13153,11865
1053950,25944,17664,-9800,-20599,10601,12852
1053965,24332,19380,-10020,-20526,7620,13518
1053977,22972,18968,-10088,-21124,5079,12207
1053989,21812,18584,-9712,-21321,3797,11862
1054001,19904,18124,-8720,-21008,1227,12802
1054013,16888,17096,-6860,-20746,-444,12879
1054025,13552,17324,-6200,-21012,-1180,13022
1054037,11140,16672,-6748,-20326,-325,13223
1054049,9244,21252,-5132,-19677,1793,13334
1054061,7292,25928,-4972,-18859,5802,14601
1054075,6136,24336,-5076,-15485,13621,15972
1054090,9056,18596,-5332,-14873,18371,14036
1054102,9868,19764,-5288,-15051,17857,9736
1054114,11480,19280,-4884,-17335,15491,5845
1054126,11416,21660,-3912,-18232,12346,4510
1054138,11388,24060,-3916,-19510,10851,2614
1054150,10392,24380,-5380,-20523,9244,3142
1054162,7824,21492,-3924,-22095,6662,-1271
1054174,6168,26168,-4728,-20983,5309,-7426
1054186,6924,26100,-3440,-20228,4224,-6709
1054198,1924,26656,-3240,-16121,7551,-8671
1054215,3216,22608,-1036,-13679,13862,-12101
1054227,5612,24344,-2208,-12985,16370,-10376
1054239,3912,21556,-3204,-12210,20135,-10568
1054251,6844,18084,-2572,-11766,21524,-17967
1054263,8656,22520,-596,-9983,22569,-21042
1054275,11484,25704,-1620,-6023,26875,-16036
1054287,11332,21052,988,-2813,28039,-13759
1054299,14236,20728,888,-3222,29721,-19834
1054311,16656,20432,2516,-2900,31944,-16324
1054323,14028,19632,4808,-4338,32767,-16333
1054339,21600,20872,5324,-5999,32767,-19175
1054351,24112,26644,5516,-5158,32767,-21427
1054363,23244,24240,9248,-2785,32767,-18343
1054377,24408,24064,6304,2271,32767,-22704
1054389,30268,26536,7820,2587,32767,-18741
1054401,22816,22088,6504,1508,30233,-14530
1054413,21864,20268,6104,1731,28281,-15134
1054425,20264,20976,7804,2606,24091,-14890
1054437,19532,19440,5568,3782,22780,-13754
1054449,14956,16260,7376,3850,21566,-15108
1054464,11852,17108,6412,359,19859,-19523
1054476,9348,19572,5388,1786,22170,-16101
1054488,9460,17492,5712,7099,21947,-15773
1054502,8448,17612,5524,11471,22523,-15929
1054514,6896,18920,6568,13342,21673,-15425
1054526,4384,16956,6096,14345,19620,-19278
1054538,4440,16372,7256,12646,17918,-22864
1054550,5292,17068,6332,7880,13008,-19075
1054562,572,14120,4280,3826,12716,-16244
1054574,-2252,14348,4648,4306,13747,-20644
1054589,-4744,18596,5108,7234,15754,-24685
1054601,-2396,19732,5456,9716,17722,-23173
1054613,-2856,20276,4744,11344,18351,-21559
1054625,-1032,18840,4616,11985,18744,-22610
1054637,-2240,19748,4836,11408,17336,-23213
1054649,-2184,19888,4032,9941,15897,-24944
1054663,-3488,20468,4132,8514,15617,-27742
1054675,-4052,19508,3720,9446,14546,-27675
1054687,-3912,18720,2008,8219,14016,-28106
1054699,-4188,20924,928,8283,12967,-29258
1054715,-2068,19200,-1124,10997,12735,-30283
1054727,-3716,18484,-2708,13694,11210,-30410
1054739,-3776,17468,-4172,15773,10456,-29530
1054751,-3716,16488,-4484,17295,12353,-29483
1054763,-5528,14432,-4704,19001,13240,-29347
1054775,-5756,12888,-6096,20107,12182,-29104
1054787,-6540,14808,-5980,20817,13544,-27862
1054799,-5764,14084,-6004,22804,14003,-25845
1054811,-6508,11932,-5344,23416,13732,-25786
1054825,-4484,10836,-6484,24588,13183,-26403
1054840,-2812,9064,-8732,26062,12047,-24965
1054852,-5496,9632,-12752,26427,11515,-21530
1054864,-5536,8112,-15376,29464,13740,-16094
1054876,-7036,7072,-17304,32068,16623,-11703
1054888,-6180,5984,-17760,32767,18675,-9378
1054900,-3496,5860,-20424,32767,18566,-7230
1054912,-1048,6768,-22684,32767,19300,-6411
1054924,64,8100,-24176,32767,19520,-5349
1054936,252,10220,-24900,32767,19022,-3699
1054950,2624,12800,-25404,32767,20353,450
1054965,5688,13724,-25492,32767,21945,5850
1054977,8004,14460,-25700,32767,21897,10074
1054989,9624,15132,-25232,32767,20202,14417
1055001,11464,16484,-23296,32767,18191,19539
1055013,11460,17956,-22228,32767,15183,24735
1055025,10756,20228,-21608,32767,11777,28781
1055037,9112,22952,-20576,32767,8591,31450
1055049,5732,24816,-18260,32767,6909,32598
1055061,1172,25824,-15208,32767,7029,32767
1055073,-3212,26164,-11988,32767,9534,32767
1055090,-4844,23784,-8936,32767,18793,32767
1055102,-2400,21408,-7916,32767,25853,32767
1055114,1040,20032,-8908,32767,29858,32767
1055126,3304,19492,-9768,32767,29467,32767
1055138,3240,19224,-9812,32767,25569,32767
1055150,2740,19908,-10744,30012,20411,32767
1055162,2204,22104,-10620,27100,15269,32767
1055174,40,24048,-11200,25000,9893,32767
1055186,-3472,24876,-11408,23232,5595,32767
1055198,-6556,26588,-13320,22654,2326,32767
1055214,-9276,30916,-12800,22523,708,32767
1055226,-14944,32767,-8824,21654,-301,32767
1055238,-21272,31792,-6196,21065,1382,32767
1055252,-27720,28372,-4124,20944,7094,29543
1055264,-29732,25696,-4236,21927,14761,27051
1055276,-29784,24160,-2692,21942,22497,25250
1055288,-28896,20860,-1268,20784,28424,24245
1055300,-27284,17244,-1792,18847,32651,22354
1055312,-24520,15980,-3368,16486,32767,20530
1055324,-22428,15032,-5220,13477,32643,19903
1055340,-20776,11760,-6996,9253,25625,18264
1055352,-21976,10632,-8984,6743,19541,14044
1055364,-24824,7860,-9652,4328,13865,10551
1055378,-27092,9836,-12236,3057,10938,9409
1055390,-30032,6988,-14164,3008,6885,10375
1055402,-30516,9436,-9696,4286,8781,325
1055414,-26384,6148,-2260,2969,16534,1826
1055426,-23740,-3140,-8008,4771,28102,7031
1055438,-22316,-1976,-14028,4369,31621,2615
1055450,-9696,-672,-14416,5051,32767,869
1055466,-6072,1976,-12584,4725,25947,1819
1055478,-180,1600,-14420,3418,21070,-757
1055490,3676,1120,-15124,1237,15456,-3134
1055502,-1200,1320,-14984,-722,7109,-349
1055514,-884,4,-14144,-2730,4814,-887
1055526,244,396,-14452,-3211,3597,-2143
1055538,484,612,-14092,-3952,2585,-2245
1055552,2572,1976,-14528,-5009,1389,-959
1055564,3044,2136,-15384,-5332,-309,-34
1055576,1844,1720,-15860,-6453,-1778,890
1055592,888,1240,-16732,-7388,-4177,1027
1055604,-412,2064,-17460,-7663,-5427,632
1055616,-404,360,-17300,-7489,-5901,342
1055628,-1144,-1532,-18692,-7437,-4962,411
1055640,192,-340,-11380,-7617,-4844,1681
1055652,-3244,-3236,-14192,-7267,-2081,2000
1055666,-5676,-6720,-11760,-5427,-1216,1082
1055678,-4344,-216,-13520,-7759,647,-291
1055690,-2372,2540,-13296,-5889,1808,1357
1055702,-1908,1656,-13636,-5220,4960,2937
1055718,-1460,1028,-13184,-5613,7362,2211
1055730,-192,2664,-13520,-5445,8427,2547
1055742,792,3700,-14292,-5634,9256,2954
1055754,2888,4236,-13964,-5758,8592,2431
1055766,1584,6636,-13612,-6500,7805,2221
1055778,1944,7304,-14712,-6768,7277,2341
1055790,3836,8036,-13656,-7155,6576,2645
1055802,4204,9504,-12944,-8019,5523,2590
1055814,2232,10348,-14988,-8591,4567,2446
1055826,3992,9280,-13764,-9855,4305,2769
1055843,5152,9048,-14428,-10336,2946,3499
1055855,4476,8320,-15228,-11221,1024,5051
1055867,2792,8368,-13708,-11883,-968,6081
1055879,2800,7036,-13652,-12544,-1745,6447
1055891,1388,8200,-13136,-12618,-2394,7441
1055903,432,8164,-11496,-13077,-2283,8612
1055915,-1312,7928,-11548,-13379,-1473,9342
1055927,-2316,9552,-11616,-13280,78,8900
1055939,-1796,11376,-12544,-13254,2482,8701
1055951,-1072,13784,-13064,-12815,4963,8712
1055968,52,15364,-14084,-12837,8700,7920
1055980,1252,16288,-13336,-12912,10384,6887
1055992,2948,15680,-14156,-13021,10762,5723
1056004,3604,15760,-14880,-13234,10050,4414
1056016,3172,16740,-14972,-13756,8426,2418
1056028,2896,17712,-15992,-14542,7961,-818
1056040,2660,19652,-15152,-14878,8288,-3035
1056052,3648,20372,-15916,-14174,9017,-3875
1056064,3500,20028,-16228,-13516,9737,-4775
1056076,3416,19452,-16492,-13043,9935,-5492
1056092,3552,17916,-15124,-12830,10100,-6811
1056104,4240,17988,-15456,-11783,11018,-7361
1056116,5472,17680,-15728,-10698,11425,-7045
1056130,5508,16532,-14972,-10836,11222,-7511
1056142,5608,16332,-13536,-10703,10672,-9046
1056154,6408,16884,-12792,-10277,10824,-9418
1056166,6992,16872,-11428,-10492,12226,-9392
1056178,6984,15868,-11536,-10898,13586,-10133
1056190,7872,17904,-11768,-9789,14394,-10710
1056202,8944,17544,-13008,-8994,14599,-10985
1056218,9908,16540,-11792,-9439,15000,-11616
1056230,10924,16488,-10968,-9678,15176,-10995
1056242,11216,16936,-11052,-9597,15606,-10713
1056256,11464,18196,-11172,-9455,16346,-10105
1056268,10940,17836,-11388,-10007,17384,-12393
1056280,11676,18092,-11784,-10065,17041,-14152
1056292,11888,19516,-11768,-9800,17114,-14617
1056304,12024,20260,-12236,-9461,16938,-13829
1056316,12264,20824,-12840,-9233,17673,-12854
1056328,10752,19700,-12896,-9214,17949,-11978
1056344,9688,18828,-12644,-8791,18624,-14199
1056356,9812,19864,-11992,-7712,16685,-16102
1056368,9752,21192,-12388,-6535,16538,-16992
1056380,9404,21264,-11924,-5984,16071,-17805
1056392,9040,19008,-11692,-5688,13782,-17910
1056404,7908,18252,-11632,-5009,13561,-17795
1056418,5956,17540,-11012,-3473,15477,-19707
1056430,6524,18396,-10476,-2942,15917,-21531
1056442,7364,17768,-10256,-3302,15805,-21580
1056454,7272,17632,-9752,-3143,15095,-22515
1056470,7396,17412,-9080,-3161,13860,-23482
1056482,6348,17904,-9036,-3512,12203,-24030
1056494,5508,17964,-8696,-3828,11048,-25595
1056506,4232,18032,-8176,-4017,10629,-27372
1056518,3544,18188,-7708,-3211,9818,-27609
1056530,1684,18384,-7620,-2943,10432,-29672
1056544,988,17964,-8172,-1456,13011,-32768
1056556,860,17620,-7376,286,14501,-32768
1056568,-84,17344,-6680,1641,15387,-32768
1056580,404,17224,-7184,2799,16508,-32768
1056596,-1588,17976,-9200,5859,19230,-32768
1056608,-1152,17232,-10088,9529,21063,-32768
1056620,-1300,16448,-10708,12769,21867,-32768
1056632,-3320,15980,-12660,16509,21685,-32768
1056644,-3732,14516,-14268,21215,23500,-32768
1056656,-4916,13084,-14644,24939,27937,-32768
1056668,-4244,12568,-14748,28825,32581,-32693
1056680,-2432,10128,-13952,32767,32767,-32700
1056692,724,8488,-13860,32767,32231,-32733
1056706,5352,11800,-14604,32767,30504,-29473
1056721,10384,12844,-15912,32767,29502,-22607
1056733,15208,9704,-16276,32767,27830,-16669
1056745,19720,2860,-16764,32767,24056,-13854
1056757,24216,-2880,-18776,32767,17629,-15058
1056769,29112,-7588,-20456,32767,7312,-15199
1056781,31608,-6228,-22720,32762,-5403,-11014
1056793,31536,-604,-26124,31339,-15203,-6065
1056805,27416,6188,-26312,30806,-18420,-5001
1056817,24176,10036,-25220,31754,-16479,-4158
1056831,20888,10716,-21760,32767,-8753,-1093
1056846,20904,8436,-18984,32767,2685,5534
1056858,23828,6780,-16600,32767,10617,13610
1056870,26284,5996,-15000,32767,13808,23194
1056882,26652,6996,-15156,29582,12459,31526
1056894,24576,9684,-14992,25225,9816,32767
1056906,19008,14244,-15924,22573,6662,32767
1056918,12416,18596,-17116,21022,4967,32767
1056930,6740,22144,-17184,20978,4330,32767
1056942,1872,23980,-15512,20914,5936,32767
1056956,-1284,23108,-13248,21045,11231,32767
1056971,-1232,21296,-11260,20929,18162,32767
1056983,412,21108,-11524,21591,23213,32767
1056995,2172,21660,-13140,21619,26182,32767
1057007,3800,22996,-16076,21071,26581,32767
1057019,4908,25224,-17684,19411,24382,32767
1057031,3016,27268,-18900,17505,19880,32767
1057043,-588,27964,-18348,15263,15038,32767
1057055,-5004,28560,-17916,13711,9925,32767
1057067,-9388,29704,-18212,13010,5606,32767
1057079,-13412,30260,-18016,12853,3171,32767
1057096,-21736,31376,-18276,12785,2780,32767
1057108,-26468,28124,-16604,13355,4524,32767
1057120,-29916,23824,-15680,15020,9211,30543
1057132,-29760,21996,-15492,15884,14946,26228
1057144,-24948,20948,-15272,17409,21648,23156
1057156,-23964,18140,-15732,17378,26070,20569
1057168,-21604,22472,-14972,16361,27353,19409
1057180,-23552,15968,-12884,15136,25953,21167
1057192,-27020,7284,-11056,12477,22000,16104
1057204,-22700,9284,-12192,12202,19084,14734
1057220,-16764,10560,-11120,10329,18287,11645
1057232,-16552,8392,-10272,9950,18065,12420
1057244,-20208,6176,-10048,9376,19045,12539
1057258,-22756,2072,-7696,8436,21944,9093
1057270,-20004,884,-6512,7549,23225,6799
1057282,-19120,340,-5464,6028,22281,6601
1057294,-18500,272,-6708,5051,21025,4851
1057306,-16492,-300,-9036,4010,20353,1157
1057318,-14552,-88,-10588,4269,22183,-1954
1057330,-11036,80,-10596,5135,25707,-3507
1057346,-6944,-1088,-11056,4437,28187,-5364
1057358,-2232,-4380,-12484,5033,27707,-5841
1057370,-684,-5356,-12456,3990,27203,-4708
1057384,1512,-3160,-14896,3990,23526,-3830
1057396,7216,-4084,-12180,2952,18289,-4639
1057408,7404,-2920,-12352,1736,13739,-5545
1057420,6916,-2196,-11700,319,10643,-6778
1057432,6320,-2008,-11720,-1076,8323,-7063
1057444,5976,-3776,-12836,-2207,6474,-6938
1057456,7384,-5392,-13628,-2831,4969,-6647
1057472,7488,-5596,-14668,-4473,437,-7267
1057484,8892,-3700,-15428,-5665,-2345,-8274
1057496,8964,-1532,-14632,-6746,-8175,-8588
1057508,8772,-768,-15936,-7353,-12811,-9035
1057520,7360,-212,-15680,-8183,-16459,-7621
1057532,3880,-1468,-13728,-9243,-19711,-7391
1057546,388,-2080,-12316,-9740,-18980,-6806
1057558,-2916,-4220,-13620,-9785,-13786,-9871
1057570,-4680,5048,-8064,-7422,-9849,-11171
1057582,-1932,3756,-13116,-2753,-4503,-8323
1057598,2852,40,-15012,-7234,1368,-5466
1057610,-272,-2072,-13764,-6762,1579,-6133
1057622,4832,912,-15008,-6140,3677,-6009
1057634,3516,512,-12888,-6123,3165,-5143
1057646,6312,-1400,-13472,-6678,1373,-6820
1057658,7748,-1848,-15672,-8474,-766,-6028
1057672,5184,-256,-13880,-9949,-6350,-4478
1057684,4208,-604,-10044,-11386,-9584,-4780
1057696,1244,1996,-9896,-12231,-9937,-5577
1057708,4608,1864,-12308,-12065,-9524,-5539
1057724,3684,2808,-12644,-12984,-8605,-4265
1057736,3344,3784,-12336,-13414,-5962,-3374
1057748,828,5264,-12584,-13339,-3821,-1398
1057760,2788,8148,-13308,-12883,-1147,-765
1057772,5740,7468,-13476,-12383,422,2255
1057784,5516,7664,-13864,-12542,331,5688
1057796,4584,8540,-14284,-12907,-964,4488
1057808,5900,9248,-14100,-12814,-1251,3306
1057820,4852,7840,-11676,-12892,-2100,4231
1057834,4372,6244,-13568,-13223,-2870,5653
1057849,3332,7748,-12048,-13954,-2804,6350
1057861,-56,10220,-9884,-14694,-2345,4586
1057873,-304,10576,-10772,-14060,479,3306
1057885,340,10276,-11228,-13719,4167,3458
1057897,188,11448,-11072,-13663,7584,3442
1057909,2252,10380,-12984,-13231,10973,3265
1057921,3032,10640,-11788,-13481,14683,4086
1057933,6612,9800,-11952,-13295,15951,8024
1057945,7044,10392,-11924,-13557,16218,9242
1057959,8836,11492,-11544,-14653,14347,7152
1057974,10752,12948,-11468,-16696,11973,5137
1057986,11248,13636,-12328,-18083,10940,4162
1057998,11584,14152,-12040,-19012,9824,5553
1058010,12160,14892,-12316,-20146,8371,8327
1058022,11568,15612,-13392,-20110,7223,9703
1058034,11224,16984,-12424,-20646,5279,10924
1058046,9836,17684,-11112,-21515,3604,10778
1058058,8696,18276,-10904,-21689,3289,10032
1058070,9728,19172,-10568,-21132,4434,11166
1058082,9844,20812,-10732,-20365,5409,12992
1058100,8596,22952,-11412,-19549,5058,13142
1058112,8416,23352,-10640,-19523,4584,11994
1058124,8952,22808,-9688,-19611,4915,11586
1058136,8556,22904,-9184,-19407,5344,11688
1058148,8792,23112,-9336,-18457,4808,11619
1058160,7908,23676,-8212,-18742,3302,11189
1058172,6700,24484,-7520,-18198,2407,9309
1058184,5828,24504,-7104,-17201,2768,8219
1058196,4660,22668,-6644,-17049,4433,7963
1058208,4584,19904,-5396,-15831,7545,8026
1058224,6860,18680,-3808,-14744,11245,6382
1058236,8216,20772,-4580,-14369,11750,4363
1058248,9760,22288,-5568,-13059,10890,3013
1058262,8848,21768,-6540,-13013,10798,1372
1058274,8748,21604,-5964,-13064,10847,-403
1058286,8172,20000,-6672,-12322,11325,-1263
1058298,8468,21920,-6084,-10937,12822,-4015
1058310,9464,21588,-6288,-10595,14889,-5094
1058322,10896,20332,-5576,-9894,17823,-4406
1058334,10892,19636,-5356,-9312,21181,-4742
1058350,12380,19632,-3928,-9144,22300,-8168
1058362,12876,21824,-3740,-8990,22679,-9456
1058374,12812,22440,-3740,-8578,23116,-8961
1058386,10716,20956,-3272,-8513,23464,-9685
1058398,10872,20492,-2748,-6798,23459,-11285
1058410,11824,19612,-2420,-5301,22316,-11919
1058424,12056,18976,-1404,-5537,21061,-12560
1058436,11368,18240,924,-5720,19929,-13119
1058448,11528,18492,1472,-4637,18979,-10930
1058460,8288,16280,592,-4650,18992,-10408
1058476,6420,14616,44,-3060,16796,-12913
1058488,6524,15152,132,-1999,16939,-13059
1058500,5232,14336,1528,-1441,17974,-12880
1058512,5260,14472,2480,456,18070,-14930
1058524,6448,15568,3108,2134,17773,-15841
1058536,5884,17516,3608,2943,17867,-16593
1058550,5560,20636,3860,4018,19672,-18063
1058562,5960,21828,4808,5442,22223,-19443
1058574,6660,23684,5880,6625,24932,-21011
1058586,8612,24288,6344,7479,26673,-20741
1058602,9356,24796,7324,7652,27723,-19700
1058614,9972,25020,7300,7986,27404,-19875
1058626,9432,24832,6732,7891,25888,-20750
1058638,9512,24748,6380,7102,24593,-21020
1058650,9016,25268,6012,6873,22998,-20425
1058662,8128,25044,5128,6973,21624,-18937
1058674,6336,23400,5100,6428,20014,-17526
1058686,3728,22788,5656,5514,18515,-18152
1058698,3168,22708,5160,5100,17101,-19165
1058712,2440,22276,4716,5718,18332,-19205
1058727,520,21076,4920,6372,20227,-16260
1058739,-1644,20364,5360,7021,21993,-16872
1058751,-2764,21200,4816,7505,23185,-15793
1058763,-3752,20980,3500,9107,23614,-13254
1058775,-4640,19640,2528,11325,24958,-13778
1058787,-6340,17476,3276,12088,26331,-13548
1058799,-4912,17528,2444,14300,26566,-14521
1058811,-2520,16852,1584,13978,24557,-10476
1058823,-6352,17048,732,12462,21878,-11046
1058837,-7584,16772,1788,12439,20688,-15991
1058852,-7080,16844,760,13095,18691,-19423
1058864,-7948,18624,-200,12748,17309,-19817
1058876,-6600,17588,-896,12776,18470,-21700
1058888,-7236,17376,-2952,13608,19180,-22926
1058900,-5848,17276,-4340,16252,19966,-23933
1058912,-3264,16236,-4656,17332,21333,-21658
1058924,-2956,14836,-6616,18452,22029,-20098
1058936,-88,13844,-7108,20566,21110,-20457
1058948,1836,12192,-7976,20690,19543,-21216
1058960,2856,12704,-9496,21059,17098,-21835
1058977,4008,12192,-11688,20760,13482,-21205
1058989,3976,11832,-12016,20190,10634,-20169
1059001,4084,11060,-13648,20268,7833,-20098
1059013,4948,9924,-14512,19877,6516,-20304
1059025,6284,8560,-15604,19556,5334,-18357
1059037,7980,7080,-16236,20263,4864,-15140
1059049,8928,5744,-16740,20669,3911,-13248
1059061,11276,4056,-17540,20711,3053,-10032
1059073,12604,3212,-17828,20856,2520,-7394
1059085,13772,3000,-17632,21287,1603,-4256
1059101,13896,2884,-18956,22208,1812,-1173
1059113,12320,2768,-20180,23126,2063,-70
1059125,8128,2116,-20580,22845,286,986
1059137,6612,1068,-22752,23366,1249,2642
1059151,7168,2016,-21540,26002,6947,6578
1059163,6996,3372,-20788,27391,10046,10466
1059175,8052,4000,-20888,28380,11831,14269
1059187,9700,5032,-20816,28965,12228,17889
1059199,10620,6836,-20772,29262,11237,21500
1059211,11128,8524,-19680,28866,9425,24781
1059227,10504,10848,-18340,28009,6906,28406
1059239,9860,13192,-18080,27406,5523,31158
1059251,7836,15560,-17364,27172,5235,32767
1059263,5040,17656,-16296,26948,6056,32767
1059275,3224,18880,-15708,27068,8211,32767
1059287,2188,19452,-14920,27648,11314,32767
1059301,1696,18872,-13572,28117,15469,32767
1059313,1984,18184,-12900,28372,18800,32767
1059325,2660,18320,-12792,28514,22090,32767
1059337,2784,18428,-11468,28008,24364,32767
1059353,3652,18788,-11600,26693,26975,32767
1059365,4816,19780,-12136,25407,29127,32767
1059377,5920,21296,-12032,23779,30416,32767
1059389,5776,22708,-12016,21593,30351,32767
1059401,3064,22488,-12020,18827,28347,32767
1059413,456,19836,-13180,15605,25668,32767
1059427,-524,16840,-15664,12518,21891,32767
1059439,-32,16836,-17284,10476,17735,32767
1059451,-1120,18256,-17840,8163,11394,32767
1059463,-4032,17960,-17236,5980,5227,32767
1059479,-8468,17492,-16716,4165,-233,32767
1059491,-11236,18540,-16404,3801,-2475,32631
1059503,-13316,19384,-16468,4240,-1902,29523
1059515,-15056,18700,-16328,4909,967,27067
1059527,-14800,17336,-16148,5527,4777,25156
1059539,-13420,15832,-15476,4967,6483,23941
1059551,-11900,14228,-15280,4310,6533,23089
1059563,-10860,13648,-15204,3838,5293,21750
1059575,-10784,13796,-14292,3301,3172,19959
1059589,-11596,12200,-14384,3429,2079,18624
1059604,-13656,10192,-13540,3504,1148,17650
1059616,-15344,8820,-13288,3325,685,16940
1059628,-16584,8736,-13332,2507,591,14560
1059640,-16704,7056,-13124,2460,2671,12773
1059652,-15540,6512,-12332,3027,4364,11147
1059664,-13720,5760,-11488,2550,5685,9359
1059676,-13392,5296,-11224,2236,6480,8574
1059688,-14372,4236,-13128,1888,5899,6928
1059700,-12840,4668,-11280,1540,4273,5394
1059714,-13652,5956,-10500,586,6452,5846
1059729,-14288,4156,-14324,1263,8559,5480
1059741,-12500,2012,-14636,2165,11550,3251
1059753,-11848,1672,-15648,2032,11548,3584
1059765,-10436,2192,-15396,2597,12273,4272
1059777,-9888,-1944,-14920,2702,12571,4374
1059789,-9068,36,-14848,1497,11824,1885
1059801,-8120,-1068,-14148,1452,11219,529
1059813,-5324,-1832,-14152,1,10207,511
1059825,6956,-2776,-13788,-1213,7045,-1730
1059837,-4944,-2404,-13884,-3031,-288,1660
1059854,-4764,-1448,-12576,-3843,-1957,1734
1059866,-4568,-1004,-12520,-4913,-3104,403
1059878,-4076,560,-12548,-5069,-4225,499
1059890,-3720,2800,-11792,-4869,-4321,75
1059902,-2536,4308,-12736,-5177,-4563,-255
1059914,-1808,5568,-12444,-5911,-4897,94
1059926,-2596,4244,-12440,-5973,-5234,279
1059938,2568,208,-8092,-6276,-5451,-2328
1059950,-4848,4188,-5828,-4425,-6746,-5701
1059962,-5152,9308,-12268,-7128,-3710,-2918
1059978,-5568,4556,-10660,-5212,-367,343
1059990,-6280,3388,-10468,-4931,3652,564
1060002,-6272,844,-9988,-4643,6795,599
1060014,-4920,668,-11440,-4730,9421,1001
1060028,-3120,-2144,-12032,-5222,11624,1644
1060040,-2944,-1980,-11960,-6020,12282,1446
1060052,-2428,320,-11980,-6606,11954,654
1060064,-1320,1440,-12548,-7918,11555,152
1060076,148,3560,-12488,-8995,10235,864
1060088,208,3876,-13200,-9774,9071,1166
1060104,496,3848,-12260,-10910,6428,4193
1060116,236,3392,-14376,-12717,4598,2874
1060128,-1140,5416,-12496,-13875,2687,2031
1060140,2480,5264,-16408,-14247,1399,2386
1060152,792,9512,-14048,-14995,-947,1993
1060164,-904,13208,-12812,-15783,-1768,1380
1060178,-476,16324,-13916,-15487,223,1707
1060190,368,17852,-13592,-14896,3170,3192
1060202,688,17520,-14596,-14202,6163,5331
1060214,924,14780,-14376,-13383,7642,7998
1060230,768,12132,-14360,-12827,9036,8820
1060242,1036,11004,-14080,-12407,11193,7988
1060254,2644,11188,-13636,-12484,13726,6853
1060266,5752,11256,-13384,-12021,15216,7933
1060278,8396,11016,-13348,-11554,16006,9134
1060290,10216,10264,-13500,-12057,16691,8637
1060304,11972,8936,-13588,-12715,16317,7733
1060316,12404,8976,-13444,-13603,14840,6769
1060328,11700,8620,-13464,-14235,12382,6779
1060340,10548,8168,-13684,-15386,10587,6505
1060356,10192,8196,-12200,-15506,8992,6964
1060368,10272,8256,-11828,-15848,9633,7459
1060380,11060,9436,-11408,-15920,10134,7304
1060392,12628,11664,-11236,-15334,11561,7903
1060404,13420,13028,-11508,-15094,12258,8555
1060416,13712,14364,-10968,-14938,12203,8586
1060428,13800,15096,-10636,-15167,11850,7983
1060440,13244,15788,-10880,-15363,11255,6942
1060452,13260,17232,-10468,-15480,10856,7339
1060466,12908,18160,-9352,-15583,10820,9061
1060481,12144,18372,-9052,-15533,11033,8687
1060493,11500,18236,-8784,-14982,11865,8459
1060505,9364,17244,-8024,-14453,12383,7444
1060517,8164,16620,-6376,-13560,13023,6289
1060529,7484,17284,-4804,-12722,14235,4864
1060541,6688,18468,-3924,-12833,16465,3306
1060553,6900,19644,-3696,-11995,18860,2553
1060565,7272,20508,-3772,-11367,20065,1221
1060577,7248,21104,-3572,-11596,20431,-1708
1060591,8024,19996,-3572,-13052,21424,-2601
1060606,6692,22652,-2460,-13497,22114,-6340
1060618,8368,24968,-3020,-13715,22074,-8593
1060630,10528,26068,-3264,-14310,22766,-9334
1060642,11952,26000,-2668,-14773,23375,-9356
1060654,13336,25732,-2836,-14758,22834,-10835
1060666,15328,27396,-3624,-16154,21644,-11350
1060678,14564,28456,-4512,-15401,20930,-10907
1060690,13012,25396,-4516,-15010,21544,-12333
1060702,13452,24944,-4188,-15497,21661,-13057
1060714,13404,23640,-4428,-15343,20591,-14649
1060731,12412,25800,-4080,-14079,20360,-14459
1060743,10344,23640,-3652,-10207,19350,-14877
1060755,10752,24492,-2008,-5534,18367,-14601
1060767,9876,24424,-1368,-2979,18711,-12746
1060779,13196,23236,-796,-1341,19151,-10256
1060791,11320,20780,-1792,-3103,21752,-9600
1060803,10660,20384,476,-1874,22890,-11915
1060815,13448,21160,1096,957,21793,-12441
1060827,12812,21888,796,748,20074,-9919
1060839,11756,20980,1548,455,18897,-12978
1060855,11800,20448,1444,1753,18739,-16671
1060867,11012,20576,996,1899,16778,-15489
1060879,9540,21164,1892,2168,15022,-14898
1060893,7808,20932,1948,3066,14757,-13082
1060905,6332,20660,2856,3727,14001,-12954
1060917,5188,19836,3416,4388,14322,-15492
1060929,4240,20668,3364,6141,16055,-19720
1060941,5376,19828,2948,7767,17324,-20186
1060953,3876,17972,2720,7790,17584,-19869
1060965,3456,18556,2752,7379,16634,-22743
1060981,2712,20532,2872,8108,17670,-23314
1060993,1104,21216,3396,9201,18178,-23509
1061005,1896,19840,3240,9754,19557,-24774
1061019,3896,19188,2920,8947,19349,-21832
1061031,-512,18800,3116,7907,17167,-21118
1061043,-2752,18460,2408,7465,15235,-24972
1061055,120,18888,952,6829,15020,-25227
1061067,-2320,19544,-160,6120,16349,-23877
1061079,-2912,18696,-1636,6488,17974,-24439
1061091,-1992,17348,-2604,7015,18657,-22407
1061107,-3420,15664,-3008,7371,17244,-24364
1061119,-4152,14524,-3580,7972,14321,-27159
1061131,-5972,14748,-3268,7691,11850,-28294
1061143,-7316,15196,-2412,9015,11807,-28411
1061155,-8176,12136,-2604,8345,14573,-28760
1061167,-10540,17120,-4584,9238,19335,-30535
1061186,-10260,23364,-4328,16131,26807,-32768
1061198,-12184,20660,-2856,21953,32767,-32768
1061210,-13488,21180,-1568,25669,32767,-31405
1061222,-10304,20248,-2136,29430,32767,-30555
1061237,-3508,21280,-4368,32767,32767,-26949
1061249,1936,21220,-5952,32767,32767,-21308
1061261,3040,18376,-7004,32767,32767,-19216
1061273,3940,14316,-10920,32767,31355,-21744
1061285,5744,10680,-12452,32767,28361,-21623
1061297,8156,7028,-13536,32767,31507,-18515
1061311,10908,-1160,-14272,32767,32315,-7227
1061323,10184,-6316,-15168,32767,29944,591
1061335,11924,-8584,-16684,32767,25551,4883
1061347,16180,-8100,-19232,31592,21714,6636
1061362,21900,-4400,-20520,29479,18026,12597
1061374,22580,100,-21848,28343,14276,19540
1061386,22536,3952,-22444,27676,11602,24745
1061398,20656,7968,-21892,26922,8995,29118
1061410,18424,11848,-21244,26492,6944,31942
1061422,18284,14988,-20692,26449,5624,32767
1061434,16916,17172,-20648,26288,4292,32767
1061446,15208,18072,-19916,26216,3178,32767
1061458,13328,17948,-18412,26389,2330,32767
1061472,10836,17816,-16996,26608,1668,32767
1061487,8324,17728,-15056,27005,3122,32767
1061499,7364,17856,-14092,27333,5467,32767
1061511,7408,18580,-13208,27641,8680,32767
1061523,6956,19568,-12612,27469,11773,32767
1061535,5948,20612,-12416,26867,14378,32767
1061547,4508,21428,-12340,25518,17255,32767
1061559,3040,20816,-10904,23971,19971,32767
1061571,2368,19120,-11116,22114,22377,32767
1061583,3532,17388,-11724,20254,23885,32767
1061597,4764,17396,-13088,17992,22596,32767
1061612,3712,18676,-14676,14998,17285,32767
1061624,1612,19624,-15264,12618,11770,32767
1061636,-2228,20916,-15548,11753,5665,32767
1061648,-6204,22012,-14368,10928,-298,32767
1061660,-10276,23504,-14800,11268,-4410,32767
1061672,-13780,26544,-13732,12223,-5613,32767
1061684,-17756,29704,-12092,13643,-3220,29975
1061696,-22376,32000,-10016,15577,4686,26914
1061708,-28412,31652,-8324,17233,15992,24691
1061720,-32760,27952,-7044,18291,28426,22530
1061737,-32768,23580,-8100,18267,32767,19926
1061749,-29640,21968,-11804,15508,32767,18246
1061761,-22528,13704,-14032,14804,32767,18677
1061773,-19836,5800,-11244,12900,32767,18003
1061785,-14924,3832,-10200,9310,32767,15559
1061797,-10108,3460,-11212,4796,27438,15267
1061809,-10444,2708,-14144,-1251,12119,14579
1061821,-10984,3068,-17084,-5694,-2556,11497
1061833,-10620,7776,-13744,-6490,-5610,6011
1061845,-15048,7904,-10276,-7203,-6696,6209
1061860,-25112,6464,-15316,-5999,-5919,7314
1061872,-26544,4852,-15120,-4331,3228,5036
1061884,-20224,708,-14664,-1336,12483,4750
1061898,-17664,-1580,-11216,-758,16114,5910
1061910,-13472,-1756,-12988,-1040,16241,-681
1061922,-6104,-40,-13928,-1078,16780,-3143
1061934,2288,1296,-12024,-2686,11156,993
1061946,-2576,-136,-13212,-4288,5328,923
1061958,224,-1980,-13452,-5865,2055,-1967
1061970,1228,140,-13620,-7580,-665,-2402
1061985,1416,3792,-15508,-8600,-3437,-4075
1061997,1188,6212,-15740,-8896,-4414,-4747
1062009,648,7804,-16404,-8960,-4551,-4212
1062023,-572,8292,-16040,-8468,-2809,-3318
1062035,-680,6444,-15828,-9181,-3642,-2082
1062047,-3680,4396,-16156,-9298,-4199,-1415
1062059,-5908,3196,-16120,-9577,-2756,-3113
1062071,-9316,2344,-17272,-9495,408,-5344
1062083,-10132,2108,-14172,-7088,6076,-5733
1062095,-12120,4392,452,-6443,9951,-10514
1062110,-1724,6612,-18476,-9297,11847,-13472
1062122,2188,10268,-15824,-8641,9080,-9053
1062134,324,8912,-12020,-6394,10012,-6574
1062146,2616,2892,-13368,-7779,4367,-5382
1062158,2576,1904,-15160,-9397,1790,-5514
1062170,456,5180,-12408,-10341,-615,-3467
1062184,-948,3044,-11308,-11557,-2379,-2944
1062196,-1420,4972,-9620,-11874,-933,-3298
1062208,-1040,6528,-8292,-12526,890,-2932
1062220,-24,7776,-12080,-13471,2632,-3187
1062235,4564,11604,-9696,-13916,6370,-1548
1062247,2296,12040,-10928,-12926,8614,1671
1062259,4080,13456,-12980,-13253,9566,4591
1062271,6200,13068,-12660,-12794,9827,6144
1062283,6244,12912,-12288,-13909,10443,5479
1062295,5696,12840,-13332,-14290,9742,4763
1062309,9152,13368,-11800,-14509,9510,5087
1062321,10348,14212,-13592,-14628,8211,5852
1062333,10000,12512,-13656,-14535,6728,7125
1062345,8324,12324,-14464,-13796,6143,6797
1062360,7620,11616,-11824,-14790,6252,5006
1062372,8848,11276,-12752,-15045,5948,4651
1062384,7808,11196,-11436,-15038,5349,5978
1062396,8104,14156,-11092,-15284,5068,6891
1062408,7764,14436,-13324,-14788,6263,6860
1062420,9508,13332,-14760,-14072,7971,5470
1062432,6132,15464,-12332,-13853,7314,3868
1062444,6188,14284,-13540,-14673,6499,516
1062456,3648,14420,-11112,-15905,4874,-3835
1062470,4608,15044,-12036,-16640,4025,-7092
1062485,1592,16592,-9648,-17229,3410,-7721
1062497,-60,17988,-11136,-17056,3475,-9083
1062509,-3180,19536,-10040,-17283,4556,-10194
1062521,-3636,20624,-11492,-16928,7354,-12017
1062533,-5220,22744,-8224,-16261,10922,-14264
1062545,-2552,25020,-10704,-14627,15200,-16311
1062557,-152,27352,-10688,-13659,18201,-18349
1062569,2700,27800,-9664,-14266,18432,-20702
1062581,3968,28464,-9456,-14953,16354,-22497
1062595,6136,27196,-5856,-14778,13449,-22227
1062610,8316,25460,-6136,-16124,12473,-20127
1062622,6940,28284,-7968,-15881,11332,-17081
1062634,2484,27768,-7008,-15850,10956,-16202
1062646,432,24808,-5464,-16606,13104,-17280
1062658,3960,21488,-5820,-14942,17626,-18184
1062670,6220,22708,-4312,-15985,18038,-19941
1062682,6724,25360,-1016,-17234,18367,-21520
1062694,9404,26028,-3156,-16699,17853,-21641
1062706,9764,25884,-3084,-14006,19748,-20700
1062718,9700,22928,-2616,-13401,21053,-22492
1062744,11668,24276,-6056,-13849,23554,-22759
1062756,10088,25656,-4812,-14753,22278,-22236
1062768,12648,26616,-4976,-13837,20444,-17821
1062780,14252,24944,-4328,-13048,19218,-11634
1062792,13512,22500,-5460,-11043,18001,-10852
1062804,12388,23260,-6028,-10556,15468,-12585
1062816,9764,22032,-7876,-9624,14790,-14050
1062828,9268,21480,-9344,-7878,14822,-16267
1062840,8484,21328,-9524,-6993,13460,-16194
1062852,5192,19376,-9284,-7793,12116,-17903
1062869,2612,20500,-8448,-7649,9943,-16394
1062881,1720,19692,-8820,-6155,10561,-14474
1062893,-4,19164,-8240,-5783,12845,-12130
1062907,72,18904,-7472,-4582,13869,-9809
1062919,-1724,17932,-7140,-3845,13848,-9626
1062931,-892,17812,-6876,-2636,12935,-9731
1062943,-684,17528,-7348,-1979,10222,-8633
1062955,-2896,15872,-6932,-1810,7957,-9647
1062967,-4792,15548,-6812,-1536,6487,-11648
1062979,-5412,14932,-6584,-937,5863,-15174
1062994,-5896,14616,-6420,-506,5061,-17045
1063006,-6368,15720,-5696,-366,4377,-17226
1063018,-7200,18000,-5540,662,3947,-16809
1063032,-7492,18732,-5752,1358,4148,-16762
1063044,-8140,18112,-5920,1480,4056,-16822
1063056,-7980,17384,-6560,2144,3493,-17585
1063068,-8764,18320,-7064,2757,3530,-17869
1063080,-9488,18056,-7536,3386,4021,-18311
1063092,-10044,17288,-8284,4274,3864,-19556
1063104,-9952,17444,-9092,5671,3616,-20025
1063119,-10056,16716,-9264,7355,2260,-20643
1063131,-11696,16056,-10656,9592,2154,-21594
1063143,-13616,15660,-12044,12198,3279,-22716
1063155,-15076,15592,-11820,14629,6166,-24732
1063167,-16448,15284,-10720,16469,10403,-26523
1063179,-16684,14576,-10452,18816,16774,-27478
1063193,-16824,14464,-11100,23588,26429,-26817
1063205,-15652,14192,-11136,27370,32767,-25644
1063217,-13596,13604,-11276,30907,32767,-24832
1063229,-10660,13676,-10036,32767,32767,-23329
1063244,-4200,14168,-9820,32767,32767,-19896
1063256,1520,13768,-10552,32767,32767,-16556
1063268,7192,13136,-12004,32767,32767,-13617
1063280,14212,8876,-10872,32767,32767,-10338
1063292,21116,1868,-9284,32767,32767,-6258
1063304,26704,-4224,-9600,32767,32767,-2046
1063318,31724,-7748,-10476,32767,32767,7280
1063330,32767,-5220,-15064,28804,23982,15343
1063342,32767,1264,-16504,22485,7429,23083
1063354,32516,5972,-15940,18256,-2378,27245
1063369,22620,7952,-14768,17343,-143,31214
1063381,18328,8744,-16292,17162,4159,32767
1063393,17252,11296,-17728,17747,7937,32767
1063405,18872,14508,-17568,18855,10045,32767
1063417,18616,16544,-16264,18546,9923,32767
1063429,18116,17116,-15660,17645,9368,32767
1063443,17968,17412,-14324,16267,8246,32767
1063455,18672,18504,-14780,15523,5876,32767
1063467,18008,20608,-15620,14606,3016,32767
1063479,15876,23352,-16712,14759,769,32767
1063494,11128,26268,-16444,15073,430,32767
1063506,7468,27984,-16144,15456,2018,32767
1063518,4468,29168,-16460,16366,4888,32767
1063530,2452,29800,-16320,17484,8147,32767
1063542,1944,28600,-17856,18885,13586,32767
1063554,2548,27468,-20212,20623,19265,32767
1063566,3008,28432,-22152,22185,22894,32767
1063578,1656,30684,-22540,22178,22540,32767
1063590,-564,31676,-21792,21078,20838,32767
1063604,-5708,30252,-19736,19031,17094,32767
1063619,-12452,26040,-19920,16642,13179,32767
1063631,-15916,23996,-19468,15015,10998,32767
1063643,-16872,22768,-19880,14213,10729,32767
1063655,-16792,23428,-19980,13906,12270,32767
1063667,-16616,23688,-19036,12943,13439,30373
1063679,-14288,21344,-18876,12275,14561,28041
1063691,-13996,19272,-17588,11208,13705,25598
1063703,-13960,18168,-17600,10221,12772,21477
1063715,-13240,18096,-16184,10853,13775,17559
1063729,-13472,17700,-14268,11918,15225,15611
1063744,-15960,15100,-10676,11793,17686,15269
1063756,-15368,11160,-9852,10824,19040,12955
1063768,-15260,9112,-7880,9708,18832,13967
1063780,-16340,5164,-7256,7203,19404,11767
1063792,-17308,4100,-5668,5634,18987,8856
1063804,-17864,3028,-4264,2496,18527,6054
1063816,-15384,7940,-6992,1795,17138,8091
1063828,-19620,5168,-7412,1604,16205,8638
1063840,-19456,3384,-7708,-798,15830,6255
1063852,-18192,432,-8604,-631,18216,3778
1063869,-15984,-4488,-10684,-2337,17655,-127
1063881,-11912,-1596,-17004,-1324,19002,-4067
1063893,-7564,156,-17072,-1339,18509,-4820
1063905,-2088,92,-18324,-80,18933,-6023
1063917,312,-208,-16516,-24,15117,-3638
1063929,-2084,-2652,-15544,-2379,11446,-1816
1063941,1820,-4004,-14160,-2915,9344,-4018
1063953,2092,-3936,-14556,-4530,6055,-5440
1063965,4344,-1692,-14228,-5802,2793,-5953
1063977,4460,612,-15408,-6439,-819,-4622
1063992,2340,1656,-17116,-7186,-5402,-5166
1064004,628,588,-16860,-7519,-5768,-5622
1064016,-196,-1148,-16308,-7895,-6221,-5693
1064030,-1836,1228,-16092,-7650,-7564,-4911
1064042,-2836,1336,-14864,-7336,-8460,-5142
1064054,-4568,224,-14388,-7083,-7213,-7159
1064066,-4016,-616,-14392,-7271,-5484,-7897
1064078,-2468,616,-15808,-6656,-3230,-8533
1064090,-1512,572,-14772,-7455,-1083,-8630
1064102,-2348,-3392,-10764,-9091,396,-11594
1064117,1848,9412,-11720,-5980,3883,-9913
1064129,7860,2800,-12272,-7047,2078,-7262
1064141,4828,1912,-13796,-6862,-719,-5450
1064155,-2056,-548,-10540,-9587,-2507,-2544
1064167,2924,-1416,-15388,-8989,-2764,-3137
1064179,-224,-1420,-11616,-12209,-6142,-6559
1064191,-384,576,-11100,-13386,-6451,-6705
1064203,-196,-472,-10500,-12262,-6361,-6726
1064215,2440,3984,-8764,-14143,-4491,-3267
1064227,5884,3328,-15340,-14594,-4995,-96
1064242,8796,4196,-9668,-16560,-6821,1724
1064254,4232,6768,-9180,-17847,-8798,1057
1064266,2000,8496,-8828,-19906,-8540,-1340
1064278,1720,11728,-9264,-21181,-6025,20
1064290,-1336,13156,-10700,-20456,-2342,2564
1064302,1408,13788,-13104,-18828,3146,4817
1064316,3196,11760,-15540,-18278,7602,5637
1064328,1164,10796,-15504,-17479,8718,4483
1064340,1956,11376,-14248,-17203,10710,2978
1064352,3432,10836,-12472,-17180,9722,391
1064367,6880,9356,-14052,-17567,9240,-1644
1064379,6768,11788,-13192,-18137,9051,40
1064391,8732,12756,-16764,-17636,9836,1650
1064403,8996,13140,-14136,-17688,12151,2754
1064415,10564,12972,-13152,-17523,13540,3460
1064427,9500,15136,-12516,-17818,15147,3416
1064439,10552,16008,-11296,-17660,17428,4693
1064451,14064,15104,-12040,-17681,20745,7083
1064462,16836,15184,-12640,-17557,22038,10681
1064476,18716,13544,-13324,-18672,22253,12668
1064491,21460,14068,-10904,-20912,19570,12225
1064503,24520,15792,-10800,-22115,16571,16275
1064515,25892,18212,-11312,-22739,12958,20528
1064527,24056,20436,-11536,-23023,7926,22301
1064539,23620,22092,-13036,-23862,3626,22279
1064551,20104,22336,-13400,-23593,-69,21841
1064563,16584,21904,-11944,-23683,-2647,19489
1064575,13680,22264,-11644,-22265,-4067,18396
1064587,11252,23432,-9728,-20520,-4513,20466
1064601,8136,23724,-8284,-19215,-2500,22593
1064616,6700,23048,-7528,-17386,1985,25205
1064628,5308,20664,-6660,-15837,5572,24098
1064640,5104,20744,-5616,-15419,9040,21036
1064652,7632,20584,-5836,-14562,11761,17557
1064664,9772,20624,-5692,-14577,13226,16399
1064676,12120,20496,-4964,-15063,12173,16263
1064688,13548,20832,-5120,-15801,8988,15101
1064700,12908,21740,-4692,-16373,4904,12793
1064712,12268,20536,-5208,-17815,1043,11555
1064726,10944,19704,-4944,-17963,-1912,11320
1064741,7264,19680,-4608,-17217,-2419,7693
1064753,7324,19704,-4072,-14940,-1421,6315
1064765,5256,17256,-2672,-13873,-855,5282
1064777,3372,18160,-2832,-13458,487,1210
1064789,2368,17448,-2236,-12360,2959,-251
1064801,1896,17604,-2168,-11134,6394,-3460
1064813,3324,18116,-2300,-9259,10960,-3776
1064825,4500,17712,-2116,-8244,14278,-6117
1064837,7340,17720,-1884,-7137,17027,-6547
1064849,9936,19044,-1784,-6315,17731,-8427
1064864,10660,22640,-2904,-5032,17327,-8898
1064876,9716,22620,-2712,-4358,18892,-9897
1064888,11656,20620,-1204,-3414,19751,-11374
1064902,11820,19132,-20,-2981,19748,-11695
1064914,11932,19420,904,-2623,19646,-12971
1064926,12120,19328,1248,-2437,19199,-13987
1064938,12504,18792,1388,-2162,19825,-14094
1064950,11268,19292,2584,-753,20105,-14650
1064962,12144,20736,3620,1376,21464,-13944
1064974,11688,19828,4360,2617,23733,-11901
1064989,11724,18140,5832,4293,25465,-11110
1065001,12824,17556,6516,5574,27163,-10735
1065013,12804,15360,6868,6112,27342,-12069
1065027,12140,15572,8644,5849,28613,-14341
1065039,11612,14856,9112,6397,28421,-13700
1065051,11876,14472,9540,6669,27372,-12950
1065063,11348,14960,9896,6684,26767,-13018
1065075,11560,14352,9716,7349,25936,-13179
1065087,11844,13844,9264,7622,24258,-14152
1065099,11492,15324,9452,7685,23086,-14839
1065114,10908,16648,10324,7538,22772,-16458
1065126,11900,17492,11460,7783,22216,-16648
1065138,11492,18020,11604,7289,21419,-16870
1065150,11872,17836,11896,6476,20823,-17693
1065162,11076,17980,11824,5243,19649,-18471
1065174,9556,18484,11224,4123,18501,-20748
1065188,9924,20224,8772,3681,18678,-22984
1065200,9800,21028,8900,2834,19519,-21230
1065212,8320,20856,8972,2318,19949,-18495
1065224,7072,20996,9168,2820,20678,-16210
1065239,5516,21216,7488,4035,23230,-17276
1065251,4568,21052,6108,4851,24774,-19482
1065263,5252,22848,4560,4848,24682,-20188
1065275,5764,24616,4292,4591,23281,-17390
1065287,3352,23944,4780,4196,20543,-14497
1065299,1952,22032,3988,3800,18052,-13373
1065313,-576,20896,2260,4021,16777,-16013
1065325,-1428,21184,1496,5174,17394,-19165
1065337,-2416,20668,904,5383,18105,-20845
1065349,-3076,20872,-388,6014,18104,-21275
1065364,-4784,20276,-364,6167,17079,-20480
1065376,-7008,19676,-880,6426,15176,-22149
1065388,-6860,19184,-1784,7285,15241,-23523
1065400,-8460,18004,-2912,7978,14321,-21771
1065412,-10624,17096,-2360,8347,13648,-21820
1065424,-12892,15844,-2284,8955,14102,-24495
1065436,-13412,15268,-1296,9571,15048,-27232
1065448,-13224,15520,-2764,11512,16971,-28356
1065460,-11900,15120,-4048,14315,17688,-28363
1065474,-9828,15368,-5456,17151,18956,-27516
1065489,-9092,13860,-5264,19133,20889,-28503
1065501,-8068,13952,-8084,21917,22577,-29503
1065513,-6044,13708,-7912,23684,25095,-31104
1065525,-2688,13632,-8120,25586,26661,-31751
1065537,512,14532,-9420,27584,26162,-30807
1065549,3904,14948,-11176,28994,22311,-28010
1065561,6476,14872,-13556,29487,17667,-25433
1065573,9040,11216,-16032,30542,15026,-22631
1065585,11068,6832,-16676,31231,12562,-19361
1065599,9768,472,-22236,29495,8708,-16309
1065614,10944,-1872,-21924,28860,3951,-11107
1065626,10488,-3964,-24384,28697,-3179,-6360
1065638,10364,-3400,-26580,28197,-8198,-2381
1065650,13028,2732,-29548,29512,-11524,1178
1065662,14244,9928,-29956,30868,-16142,4929
1065674,10828,16024,-28676,32085,-20765,6404
1065686,6272,20500,-26316,32767,-22044,7248
1065698,2588,23536,-23568,32767,-19525,8469
1065710,-564,24884,-21308,32767,-14239,10411
1065722,-3836,25208,-20160,32767,-7827,12719
1065739,-8592,26752,-19124,32767,1118,15024
1065751,-11768,28440,-17296,32767,8923,14839
1065763,-13128,29948,-13184,32767,19785,15448
1065775,-12516,28352,-10616,32767,31051,18792
1065787,-9448,24940,-7336,32767,32767,24977
1065799,-6484,22372,-5732,32767,32767,30678
1065811,-5176,21412,-5568,32767,32767,32767
1065823,-5856,21432,-6028,32767,32767,32767
1065835,-6728,21796,-6116,32767,32767,32767
1065847,-6476,21460,-6136,32767,32767,32767
1065862,-4884,20228,-7492,32767,32767,32767
1065874,-4672,19732,-8808,32767,32767,32767
1065886,-4116,19472,-10028,30892,32230,32767
1065900,-2264,20404,-12948,26912,25293,32767
1065912,-1916,22912,-12552,23711,17664,32767
1065924,-4420,24496,-11004,20177,8312,32767
1065936,-7820,25248,-9936,17411,1179,32767
1065948,-12164,26016,-9052,15905,-2954,32767
1065960,-15448,27196,-8548,16012,-2558,32178
1065972,-19060,27964,-7160,16679,1794,30349
1065987,-23124,24132,-5524,17968,10751,29900
1065999,-22608,21000,-5708,18381,17985,29192
1066011,-19392,20828,-6568,18099,23643,28131
1066025,-16852,21964,-8084,16105,26806,28288
1066037,-16632,20444,-6564,13948,26220,30115
1066049,-21656,16764,-3856,10801,21281,28479
1066061,-26056,15484,-4096,7574,18073,27137
1066073,-26992,14912,-10300,6506,11749,25543
1066085,-32768,11576,-15860,4524,5156,19928
1066097,-32120,11876,-12164,3608,-1982,10825
1066112,-31064,19176,-7928,5102,3906,3736
1066124,-25288,9176,-1588,4288,10339,7115
1066136,-31500,1808,-6688,5509,21388,8201
1066150,-27620,-1920,-10772,3784,23762,-1375
1066162,-18744,-1724,-16096,4065,26056,-2301
1066174,-13100,1412,-8576,3514,29296,319
1066186,-13668,-892,-8856,3223,23014,-958
1066198,-6796,996,-13212,78,18414,-4186
1066210,-6756,-1900,-13720,-497,14006,-5572
1066222,-6448,-3472,-13808,-2382,10432,-6650
1066237,-4256,-1472,-14484,-2684,8508,-3258
1066249,-4200,-432,-13460,-4100,5864,-4494
1066261,-2724,-84,-13936,-4672,3624,-5235
1066273,24,2852,-12720,-6251,-241,-4876
1066285,1360,4444,-13992,-7041,-4203,-3058
1066297,1284,7256,-13852,-8643,-7646,-1541
1066311,-960,9076,-12800,-9431,-11324,-380
1066323,-5384,6748,-13224,-10282,-12592,-1790
1066335,-7796,5004,-12548,-11116,-11497,-2290
1066347,-12540,7236,-7580,-12758,-9309,-3419
1066362,-11360,5480,-8360,-8119,-5776,-5767
1066374,-16964,5088,4096,-4124,-5282,-5437
1066386,-6256,9124,-14784,-10426,2838,-3737
1066398,-7320,4416,-13284,-6982,3903,-3990
1066410,-5012,5424,-12692,-7991,5253,-2245
1066422,-4192,4628,-14184,-7344,6169,-1052
1066434,-2220,4088,-14544,-7014,6213,720
1066446,-2680,1728,-14836,-7503,6378,838
1066458,-4572,2208,-12092,-8027,5493,-437
1066472,-4332,4528,-10988,-8326,6411,-1894
1066487,-1216,7004,-11124,-9132,8886,-1768
1066499,104,7428,-10540,-9928,9545,-422
1066511,584,8096,-8636,-11475,10044,362
1066523,1448,9588,-8680,-13024,10173,1569
1066535,2112,9604,-9048,-13105,9565,3192
1066547,4044,9664,-11264,-14491,9309,4744
1066559,4176,10508,-12012,-14419,8986,5872
1066571,5192,11264,-12128,-14937,8425,7307
1066583,4860,12108,-11528,-15382,7644,7460
1066597,4972,12856,-11376,-16075,7506,6913
1066612,5348,13960,-11708,-15898,8596,5903
1066624,6304,13068,-11628,-15800,8845,5258
1066636,4416,11484,-11352,-16379,9503,3651
1066648,2836,10436,-10764,-16875,9934,1041
1066660,5616,9012,-13996,-17037,9926,-614
1066672,5524,10628,-12384,-16133,11410,-1181
1066684,6284,13140,-12332,-14746,13810,-149
1066696,6352,15596,-10336,-14052,14831,812
1066708,8536,16588,-9756,-13722,15751,1049
1066720,10836,17568,-8904,-14210,16913,1123
1066737,12380,18032,-10136,-14696,17104,725
1066749,12164,18092,-10244,-15185,16018,855
1066761,11616,18520,-10908,-15724,14155,573
1066773,10408,20040,-10592,-16494,12223,-150
1066785,10420,21008,-9940,-16658,11681,-923
1066797,10108,21920,-10496,-16883,12349,308
1066809,8924,22800,-11448,-16533,12981,1520
1066821,7668,22468,-10440,-16179,12374,1161
1066833,5240,22600,-9852,-15937,11246,-597
1066845,2964,23304,-10004,-15680,11496,-3140
1066860,632,24492,-9332,-14757,13249,-6856
1066872,608,24700,-7948,-13719,14660,-10681
1066884,1116,26952,-8040,-13124,17391,-11230
1066898,2692,27372,-8560,-10116,19722,-9665
1066910,4548,25100,-9028,-9632,21473,-9787
1066922,3032,23824,-10056,-9134,22965,-10177
1066934,3064,23516,-9804,-8765,23820,-13032
1066946,5204,23764,-8924,-9032,25035,-18590
1066958,7648,24324,-8804,-8293,24874,-21602
1066970,8384,25236,-6988,-9064,22456,-21303
1066985,9200,26024,-7848,-9076,21746,-17507
1066997,9824,24572,-7588,-7284,22234,-15872
1067009,11572,23812,-4968,-4994,20201,-15377
1067023,12464,21664,-4104,-2781,18409,-14566
1067035,12088,21796,-3552,-1637,15222,-15565
1067047,11612,21728,-5288,-715,16037,-15791
1067059,9444,20008,-2808,-94,17426,-15269
1067071,11008,21104,-2724,557,18779,-15841
1067083,10876,21204,-3464,962,17924,-16145
1067095,12080,23020,-3596,1835,17232,-17558
1067110,11768,21988,-2472,525,16730,-18415
1067122,11604,19808,-3220,877,15175,-18044
1067134,9480,19832,-4468,1917,15830,-19171
1067146,11880,20516,-5364,1614,17206,-18922
1067158,11788,20776,-5616,1994,16524,-18615
1067170,10136,20416,-6028,1318,15617,-18343
1067184,7840,19164,-5316,1146,13028,-18741
1067196,6140,18628,-4940,773,12259,-19618
1067208,4152,17676,-4956,1150,12848,-19750
1067220,3380,15876,-4100,3421,12757,-18226
1067236,1880,16892,-4056,5068,13058,-18120
1067248,1768,17044,-4128,5610,13394,-19781
1067260,952,15540,-4548,5667,14697,-21870
1067272,224,16952,-3724,5537,13903,-22983
1067284,-632,16192,-4752,5373,13494,-24035
1067296,260,17908,-6352,6708,15493,-22506
1067310,-1868,18216,-6612,7829,17724,-19952
1067322,-1404,16700,-6936,8348,17763,-21355
1067334,-692,15292,-6860,8216,16741,-22747
1067346,-1132,16552,-7048,8694,15557,-22412
1067362,-1640,15680,-7012,7921,13945,-21426
1067374,-2560,15100,-6928,8136,13300,-21175
1067386,-4204,14600,-7392,7820,12191,-23860
1067398,-4424,14204,-8456,7908,11916,-25432
1067410,-5328,14368,-9968,8756,12752,-25454
1067422,-6488,15484,-11480,10028,13857,-25056
1067434,-6568,16296,-12208,11101,14959,-26444
1067446,-6224,16940,-12072,11992,15347,-28094
1067458,-5188,17384,-12808,12884,15686,-28206
1067472,-4836,17604,-12960,14475,15284,-27189
1067487,-5236,16496,-14644,15457,13820,-27424
1067499,-5424,16716,-15204,15794,13427,-26751
1067511,-7548,15172,-16248,17322,14345,-24763
1067523,-9368,12412,-17004,19406,17157,-24902
1067535,-8712,10556,-16788,19968,20348,-26483
1067547,-4876,12184,-18792,22384,23848,-26362
1067559,-488,15028,-20256,25829,28388,-25123
1067571,5656,16836,-18764,31227,32718,-23294
1067583,15704,14604,-14908,32767,32767,-18760
1067597,24764,8188,-10512,32767,32767,-15826
1067612,29428,-1224,-8208,32767,32767,-12686
1067624,31344,-9340,-6800,29256,32767,-2894
1067636,32760,-19044,-9932,24241,19220,11312
1067648,32767,-14236,-14736,20241,8107,18111
1067660,30456,-1648,-18040,18658,-738,20932
1067672,22960,4372,-16532,16419,-8406,22309
1067684,17652,5660,-16120,15735,-10372,24152
1067696,14056,4916,-15320,15867,-7860,26398
1067708,10952,5880,-16840,17331,-3346,29437
1067720,8772,8048,-16748,18853,1197,32084
1067737,8556,11292,-16364,20193,5729,32767
1067749,9872,13172,-14776,20229,7426,32767
1067761,10916,13844,-13728,19292,7490,32767
1067773,11204,13764,-13704,17488,6121,32767
1067785,10720,14536,-14900,16163,3228,32767
1067797,7616,16120,-15476,15632,-957,32767
1067809,4488,17192,-15584,15410,-4539,32767
1067821,2340,17228,-15620,15216,-5963,32767
1067833,124,16872,-15348,15787,-5177,32767
1067845,-1676,15884,-14684,17271,-2484,32767
1067860,-2632,14736,-14276,19043,3361,32767
1067872,-2684,14948,-13704,20383,8601,32767
1067884,-2200,16132,-12200,20977,12392,32767
1067898,-3720,17004,-9152,20285,13519,32767
1067910,-4848,16236,-9836,19569,13191,32767
1067922,-3952,15372,-11404,18889,13483,32767
1067934,-3352,15740,-12168,18594,13571,32767
1067946,-4204,16004,-12768,17571,13886,32767
1067958,-6756,16024,-12976,16701,13154,32767
1067970,-8760,15980,-13140,15696,12193,32767
1067985,-9472,16736,-13072,14777,11857,32767
1067997,-10552,16772,-12828,14423,12681,32767
1068009,-13324,16052,-13268,14012,13455,32767
1068023,-14252,16248,-14880,13404,14237,32347
1068035,-12636,17468,-15252,12770,15442,30468
1068047,-12460,16980,-13704,11756,14776,30759
1068059,-13032,14652,-13804,10387,12049,29757
1068071,-12224,13004,-14036,8535,8643,27048
1068083,-9632,12876,-14636,7592,6410,24758
1068095,-9440,13616,-13700,6638,4481,23956
1068110,-12320,14560,-12836,5650,2469,22401
1068122,-14008,13940,-12352,5689,2632,20943
1068134,-15732,11936,-12276,6010,3621,20103
1068148,-16128,9336,-12000,6918,5267,19286
1068160,-15048,8044,-10792,7361,6054,18368
1068172,-15640,7016,-10232,6857,6713,17267
1068184,-17264,6476,-8964,5765,5762,16125
1068196,-20724,6144,-9196,4833,6539,13373
1068208,-22048,4652,-9660,4928,7262,11685
1068220,-23052,3404,-7688,4903,12087,7368
1068235,-25048,392,-6412,4809,14187,3482
1068247,-17320,3356,-5968,4691,17278,4651
1068259,-14900,5700,-7256,5224,19741,6750
1068271,-12892,2636,-10540,4585,19119,6242
1068283,-10508,192,-9296,2678,18953,5191
1068295,-11436,-284,-10056,2279,15726,4388
1068309,-9340,864,-11528,647,14822,837
1068321,-7572,1764,-11556,-319,13524,-1454
1068333,-5848,4712,-12484,-1134,12288,-1069
1068345,-4164,4580,-12456,-1644,10603,-1820
1068360,-2844,4472,-11980,-2247,9159,-3143
1068372,-2236,4272,-9092,-3890,6365,-5639
1068384,-4900,3476,-11256,-5357,-129,-5102
1068396,-5844,2908,-11392,-6314,-2871,-5392
1068408,-5828,2056,-9196,-7185,-2989,-5196
1068420,-7324,32,-10536,-8620,-4073,-2939
1068432,-9480,760,-11896,-8256,-2884,-3548
1068444,-6724,2116,-13088,-7868,724,-5054
1068456,-6760,72,-14416,-7156,4130,-6463
1068470,-3272,312,-18136,-6809,3766,-7963
1068485,-3072,19588,-12804,-6615,6487,-8305
1068497,40,-3144,-17052,-6459,6582,-7482
1068509,2268,2888,-12216,-8454,4683,-6433
1068521,2196,568,-16968,-8771,1725,-7011
1068534,2032,3176,-12368,-10689,141,-7387
1068546,3088,3340,-15660,-11730,-786,-6079
1068558,1844,1776,-13900,-12432,716,-3300
1068570,1716,4632,-13952,-11661,1181,-151
1068582,-924,5244,-16452,-12470,2422,559
1068596,556,3816,-14260,-12118,5287,2697
1068611,-548,6804,-13868,-11946,6991,4817
1068623,1560,7356,-14004,-12741,9101,5688
1068635,1740,7408,-13168,-11927,8876,5626
1068647,2120,6900,-12292,-13096,9369,4781
1068659,2816,8352,-15420,-12275,8272,2929
1068671,5396,8660,-18600,-12417,8013,1505
1068683,2740,9124,-15488,-12388,5562,1754
1068695,2700,10504,-13936,-12405,3910,2145
1068707,3036,11044,-13852,-11955,2741,3065
1068719,1576,11336,-12148,-12075,2237,2390
1068734,2092,10868,-10280,-12023,3495,1628
1068746,1948,11052,-8204,-12156,5515,3618
1068758,2456,11348,-8296,-12423,8383,4768
1068772,3628,10896,-7752,-12578,13335,5664
1068784,5488,11284,-8052,-12558,15950,7040
1068796,6660,11304,-9276,-13208,17877,8076
1068808,7956,10836,-10476,-13764,19074,7945
1068820,10380,11156,-10264,-14349,19005,9994
1068832,12380,11056,-10364,-15057,17320,10843
1068844,11824,12928,-10588,-15915,15640,7781
1068859,13352,14112,-10720,-17283,14064,3542
1068871,13940,16004,-10812,-18331,13841,5472
1068883,14480,17268,-9820,-19245,14045,9708
1068897,16440,19372,-8764,-20208,13452,13414
1068909,17968,19708,-9900,-20828,13537,14635
1068921,18428,21204,-10552,-21383,13115,15554
1068933,17596,21504,-10808,-22105,11511,15278
1068945,16656,21056,-11024,-21697,9864,14915
1068957,16416,20532,-11500,-21620,8312,14576
1068969,16436,21220,-11520,-21443,6938,16517
1068984,13132,22972,-10208,-20543,6294,18561
1068996,10692,23808,-9152,-19488,6373,16304
1069008,10972,24192,-8768,-17681,8499,15435
1069022,11512,24652,-7772,-16938,10526,14762
1069034,11784,24232,-6600,-16887,9450,13748
1069046,13300,22840,-6552,-16772,8533,14882
1069058,11456,24532,-6140,-16618,7493,15063
1069070,9736,21668,-6436,-16833,6399,12450
1069082,8988,19324,-5032,-17221,5006,10030
1069094,6388,20456,-3828,-16711,4640,6130
1069109,6404,20016,-3104,-16995,7048,1799
1069121,8084,20624,-3512,-15147,7949,399
1069134,7880,24464,-2288,-12929,9578,909
1069146,7264,22632,-2472,-12805,13536,1070
1069158,8076,22440,-2316,-10951,16189,597
1069170,9252,21564,-3848,-9954,17622,188
1069184,7868,19392,-3424,-10283,21472,-4268
1069196,9828,20272,-2464,-9167,23786,-7109
1069208,15028,20692,-3288,-7976,23363,-7657
1069220,18836,23628,-3092,-6648,21672,-3273
1069235,17188,19992,-2384,-5729,18774,217
1069247,14592,16568,-1568,-5591,17350,-4516
1069259,12096,15132,184,-5845,15762,-11802
1069271,11424,16480,868,-5870,15076,-15239
1069283,9464,16684,2396,-5124,16112,-14390
1069295,8536,13732,2580,-3921,16502,-14044
1069307,7688,13960,2792,-2968,17531,-14790
1069319,7208,14524,3116,-2652,20792,-15343
1069331,9148,14608,4692,59,22539,-15935
1069345,10152,15984,4872,284,24392,-17256
1069360,11952,16336,4712,1532,26255,-17983
1069372,12780,17220,5580,2356,24596,-18842
1069384,12444,17284,6444,2774,24106,-19413
1069396,11912,18536,7008,3228,24770,-21081
1069408,11212,17884,7212,3446,26329,-21650
1069420,11352,18448,7444,4277,27976,-21252
1069432,10724,20568,8028,5476,28839,-20815
1069444,10356,20676,7932,6982,29818,-20800
1069456,10692,20008,9144,7520,30055,-20686
1069470,10220,19832,8600,8094,28381,-21099
1069485,9964,20428,7780,7670,26229,-22924
1069497,8592,21440,7236,7195,24180,-23939
1069509,7704,22640,7188,7271,22049,-22845
1069521,5152,23004,6332,7590,21658,-20855
1069533,3236,22852,5684,8282,23072,-20219
1069545,2524,23064,5796,9266,24301,-19665
