Time,AccelX,AccelY,AccelZ,GyroX,GyroY,GyroZ
94267,-13984,-6016,-5984,74,-583,-665
94278,-13176,-6020,-5500,-24,-225,-732
94290,-13168,-5952,-5640,-11,-319,-701
94310,-13736,-5980,-6056,-49,-90,-493
94322,-13844,-5992,-6072,55,-369,-658
94334,-13812,-6080,-6160,-28,-163,-615
94346,-13336,-5852,-6216,37,-461,-700
94358,-13004,-5888,-5936,-12,-159,-697
94370,-13316,-5900,-5940,36,-307,-608
94382,-13532,-6084,-6008,-26,-16,-438
94404,-13624,-6156,-5916,18,-216,-685
94416,-13584,-6052,-5952,27,-397,-708
94428,-13032,-6024,-5732,25,-308,-602
94440,-13392,-6028,-5648,-7,-205,-535
94453,-13704,-6092,-5828,16,-205,-582
94465,-13900,-6096,-5880,-29,-171,-591
94477,-13788,-6056,-6080,15,-425,-679
94489,-13364,-6080,-5928,-4,-283,-739
94501,-13164,-6032,-6004,-11,-274,-624
94513,-13304,-5984,-5892,27,-233,-531
94530,-13648,-6052,-6136,19,-193,-599
94542,-13644,-5992,-6108,16,-268,-632
94554,-13572,-6080,-6168,13,-303,-656
94566,-13256,-6040,-5976,23,-361,-637
94578,-13228,-5924,-5744,9,-212,-542
94590,-13600,-6052,-5876,21,-224,-543
94602,-13788,-6068,-6020,0,-249,-616
94615,-13784,-6204,-5864,9,-237,-675
94627,-13476,-6104,-6004,-16,-318,-634
94639,-13280,-6060,-5552,32,-314,-608
94654,-13512,-6148,-5820,12,-285,-602
94666,-13592,-6040,-5908,-13,-140,-590
94678,-13740,-6072,-6044,37,-235,-634
94690,-13580,-6160,-6088,20,-272,-684
94702,-13420,-6000,-6156,18,-365,-643
94714,-13208,-5732,-6100,12,-226,-590
94726,-13456,-5840,-5896,22,-244,-571
94738,-13620,-6084,-6008,-13,-137,-604
94750,-13580,-6104,-6044,40,-249,-624
94762,-13628,-6172,-5988,14,-308,-608
94779,-13404,-5856,-5796,4,-266,-579
94791,-13352,-5860,-5660,6,-304,-628
94803,-13532,-6084,-5872,5,-113,-632
94815,-13692,-6096,-5948,22,-328,-595
94827,-13596,-6120,-5812,-33,-197,-620
94839,-13628,-6048,-6032,12,-375,-646
94851,-13376,-6068,-5760,-2,-208,-602
94863,-13412,-5808,-5928,20,-267,-596
94875,-13460,-5992,-5992,-17,-178,-665
94887,-13688,-6072,-6120,11,-258,-625
94902,-13484,-5984,-6088,37,-372,-587
94914,-13528,-6040,-6180,-11,-209,-577
94926,-13360,-5940,-5884,51,-359,-640
94938,-13464,-6008,-5900,3,-146,-632
94951,-13532,-6144,-6000,15,-233,-567
94963,-13580,-5968,-5968,24,-284,-587
94975,-13688,-6100,-5760,13,-279,-643
94987,-13608,-6012,-5840,10,-276,-597
94999,-13464,-6000,-5872,-2,-275,-629
95011,-13372,-5992,-5928,14,-194,-663
95026,-13516,-6116,-5944,9,-224,-591
95038,-13676,-6088,-5936,29,-316,-616
95050,-13480,-5872,-6064,-11,-208,-616
95062,-13316,-6024,-6000,40,-310,-658
95074,-13364,-6104,-6012,-3,-192,-672
95086,-13436,-6020,-6112,24,-262,-564
95098,-13648,-6036,-6092,8,-274,-593
95112,-13572,-6032,-5988,-22,-173,-601
95124,-13524,-6028,-6028,39,-397,-637
95136,-13644,-6072,-5840,-14,-190,-642
95151,-13444,-6068,-5912,1,-191,-582
95163,-13556,-6060,-5736,5,-289,-585
95175,-13560,-6076,-5844,-15,-174,-623
95187,-13560,-5992,-5924,25,-319,-591
95199,-13496,-5884,-5892,-15,-234,-646
95211,-13344,-6064,-5984,28,-302,-677
95223,-13388,-6088,-6044,-38,-204,-611
95235,-13400,-5996,-6132,18,-293,-561
95247,-13540,-6060,-6032,-14,-208,-631
95259,-13532,-6020,-6180,34,-286,-665
95276,-13340,-5992,-6136,19,-346,-636
95288,-13468,-5984,-6080,3,-230,-569
95300,-13564,-5940,-5936,29,-313,-599
95312,-13636,-6000,-5900,2,-217,-595
95324,-13640,-6120,-5896,37,-226,-656
95336,-13560,-6176,-5928,42,-289,-564
95348,-13628,-6024,-5700,36,-223,-619
95360,-13472,-6068,-5860,15,-352,-639
95372,-13456,-6068,-6096,-8,-116,-555
95384,-13632,-6084,-5956,14,-313,-624
95399,-13608,-6088,-6016,-13,-207,-699
95411,-13432,-6088,-6056,46,-363,-660
95423,-13480,-6040,-6000,-18,-143,-547
95435,-13552,-5968,-5948,62,-378,-635
95449,-13500,-6060,-6052,-7,-188,-633
95461,-13516,-5964,-6144,43,-335,-586
95473,-13580,-6080,-5944,-14,-227,-598
95485,-13500,-5968,-5904,41,-276,-634
95497,-13444,-6056,-5856,-3,-206,-613
95509,-13576,-6060,-5824,44,-308,-572
95524,-13536,-6080,-5796,34,-281,-617
95536,-13508,-6100,-6016,-45,-204,-620
95548,-13540,-6032,-5856,49,-338,-625
95560,-13516,-5988,-5984299,-586
95733,-13480,-5916,-6024,20,-248,-616
95745,-13580,-6084,-6004,7,-251,-647
95757,-13536,-5992,-6032,-12,-244,-626
95774,-13528,-5956,-6084,21,-232,-591
95786,-13536,-6000,-6160,-9,-247,-597
95798,-13492,-5988,-5896,111,-268,-552
95810,-13564,-6012,-5960,22,-21,-555
95822,-13352,-5892,-5932,292,-780,-409
95834,-13660,-5896,-6160,77,153,-648
95846,-13472,-6300,-5900,137,-283,-621
95858,-13712,-5984,-5724,115,-307,-682
95870,-13356,-6052,-6048,-16,-240,-575
95882,-13636,-5988,-5848,19,-16299,-586
95733,-13480,-5916,-6024,20,-248,-616
95745,-13580,-6084,-6004,7,-251,-647
95757,-13536,-5992,-6032,-12,-244,-626
95774,-13528,-5956,-6084,21,-232,-591
95786,-13536,-6000,-6160,-9,-247,-597
95798,-13492,-5988,-5896,111,-268,-552
95810,-13564,-6012,-5960,22,-21,-555
95822,-13352,-5892,-5932,292,-780,-409
95834,-13660,-5896,-6160,77,153,-648
95846,-13472,-6300,-5900,137,-283,-621
95858,-13712,-5984,-5724,115,-307,-682
95870,-13356,-6052,-6048,-16,-240,-575
95882,-13636,-5988,-5848,19,-164,-627
95899,-13540,-5948,-5952,52,-119,-661
95911,-13544,-6108,-5904,-34,-350,-649
95923,-13580,-5976,-5972,44,-142,-631
95935,-13500,-6016,-5896,-3,-356,-590
95947,-13428,-5868,-5880,24,-188,-637
95959,-13500,-5944,-6044,-7,-282,-574
95971,-13560,-6044,-6176,29,-210,-601
95983,-13632,-6092,-5944,18,-273,-632
95995,-13668,-6008,-6088,32,-287,-597
96007,-13432,-6116,-5876,11,-260,-591
96022,-13500,-5932,-5984,-10,-292,-574
96034,-13552,-6020,-5948,26,-210,-646
96046,-13552,-5980,-6072,-16,-265,-627
96058,-13548,-6108,-5928,57,-259,-605
96072,-13544,-6036,-5992,-11,-238,-621
96084,-13544,-5932,-5900,27,-314,-620
96096,-13448,-5972,-5952,7,-241,-621
96108,-13620,-6020,-5816,-2,-239,-613
96120,-13468,-6024,-6156,16,-201,-652
96132,-13496,-6132,-6000,9,-274,-618
96147,-13524,-6056,-6064,41,-229,-553
96159,-13536,-5940,-5920,39,-298,-608
96171,-13476,-5960,-5972,17,-187,-609
96183,-13476,-6000,-5904,20,-318,-628
96195,-9736,1312,-6084,-531,-1310,7774
96207,-11248,-5916,-6900,-1026,4735,10025
96219,-13076,-7584,-4708,894,11950,12128
96233,-14500,-3900,-8224,-111,3644,9521
96245,-13252,-5452,-5940,225,3559,6463
96257,-14068,-5692,-6460,364,3059,6021
96272,-14140,-4076,-7880,-57,2631,1562
96284,-14172,-4868,-9568,2170,3178,3751
96296,-13244,-4416,-7272,5057,6214,4370
96308,-14132,-4876,-5368,5126,5909,-191
96320,-17900,-3136,-5220,334,6237,-11286
96332,-17872,-5984,-7360,-1827,-3864,-5452
96344,-12264,-6052,-8244,-948,-3292,-8344
96356,-14332,-5956,-8528,-2450,-3011,-6387
96368,-15308,-7744,-9372,-1943,-3356,-4990
96380,-14876,-5944,-8596,-851,-3553,-5580
96397,-13496,-6676,-7760,-2153,2700,-11545
96409,-16644,-6564,-7368,-1497,3500,-14501
96421,-15444,-7156,-6780,-1471,5734,-18939
96433,-11492,-9416,-8996,-1753,10666,-24455
96445,-13968,-7060,-9592,-351,14433,-22878
96457,-14916,-9296,-10384,-1436,16588,-20782
96469,-14460,-9236,-9204,-1728,14936,-17298
96481,-16036,-10540,-10128,-3085,9326,-8464
96493,-14888,-11084,-10336,-2836,3889,-126
96505,-16332,-10152,-10936,-2729,-2195,3747
96522,-14636,-8068,-12224,-3031,-4907,3968
96534,-14756,-8052,-12172,-3447,-4771,3428
96546,-14732,-8024,-11892,-3676,-5096,4065
96558,-14620,-7872,-11696,-3752,-5757,5190
96570,-14460,-7700,-11456,-3728,-6085,5847
96582,-14412,-7588,-11128,-3905,-5280,6589
96594,-14816,-7460,-10892,-3726,-4752,7301
96606,-15440,-6696,-11728,-3882,-4022,7980
96618,-15764,-6312,-11676,-4705,-4126,8120
96630,-16160,-6260,-11604,-5426,-5098,7093
96645,-15480,-6164,-10796,-5559,-5510,6277
96657,-15852,-6224,-11168,-5571,-5128,5892
96669,-17304,-7256,-9916,-5222,-6000,5209
96683,-15864,-6660,-9628,-4864,-7355,5392
96695,-15652,-6360,-9772,-5097,-7771,5901
96707,-14928,-5880,-9620,-5383,-6917,5958
96719,-15276,-5476,-9792,-5517,-6173,6410
96731,-14896,-5200,-9712,-5617,-6061,7604
96743,-16268,-5376,-9992,-5506,-6405,7872
96755,-16248,-5292,-9840,-5730,-7275,7623
96770,-16172,-5360,-8908,-5811,-7653,8479
96782,-15680,-5016,-8632,-5798,-7956,9136
96794,-14656,-4764,-7708,-5856,-7314,9580
96806,-13820,-4436,-7356,-6149,-6119,9921
96818,-14564,-4384,-7428,-6331,-5360,9737
96830,-14740,-4124,-6992,-6169,-5706,9623
96844,-13112,-2828,-6532,-6027,-6896,9830
96856,-12260,-2496,-5760,-5460,-7500,9486
96868,-11844,-2672,-4644,-4517,-7601,8037
96880,-10944,-2188,-4220,-3738,-7317,7260
96895,-10472,-2016,-3480,-3094,-6997,7180
96907,-9448,-1680,-2764,-2865,-6056,7516
96919,-8632,-1140,-2280,-2835,-4620,8048
96931,-8844,-972,-2248,-2736,-3634,7910
96943,-8948,-856,-2152,-2564,-3053,7062
96955,-8808,-444,-2204,-2430,-2703,6714
96967,-8928,-720,-1664,-2246,-2795,6252
96981,-9024,-732,-1212,-1910,-3658,5289
96993,-6976,300,-1012,-2159,-3565,5238
97005,-6068,272,-216,-1655,-3708,5140
97020,-5256,680,568,-800,-2182,3852
97032,-4984,1288,124,-452,-621,2704
97044,-5796,976,-96,-165,264,2018
97056,-6408,584,-252,298,50,1179
97068,-5632,736,-428,762,78,981
97080,-6140,916,-1316,1083,718,216
97092,-6480,1156,-1736,1060,1199,-670
97104,-7520,964,-2012,1015,1241,-1441
97116,-7260,812,-1936,1120,934,-1815
97128,-6708,1048,-1824,1445,782,-2337
97145,-6944,-964,-3168,2202,277,-2621
97157,-18068,7796,-16020,-3032,-14128,16034
97169,-896,4392,2704,1337,709,-6589
97181,-4848,764,176,657,6739,-14305
97193,-11732,-2256,-3332,1303,5859,-8106
97205,-13856,-1056,-5496,1699,605,-3238
97217,-12848,340,-5956,2010,-836,-6114
97229,-13392,412,-5864,2454,91,-10253
97241,-12780,200,-5252,2792,1977,-10279
97253,-13556,-724,-5248,2296,2582,-8473
97268,-14892,-1624,-5516,1573,2397,-7259
97280,-15540,-2120,-5440,1583,1945,-6786
97292,-15916,-1820,-5728,1707,825,-5790
97304,-16636,-1476,-6128,1574,-19,-5973
97318,-15860,-1456,-5564,1153,411,-5494
97330,-16100,-1720,-5776,926,822,-5414
97342,-15496,-1736,-5480,743,1931,-5416
97354,-16196,-1940,-5908,1003,2839,-5759
97366,-16376,-1476,-6148,1183,3000,-6197
97378,-16568,-1560,-5972,1169,2320,-6357
97393,-15120,-2468,-4616,2326,822,-7176
97405,-14200,-4100,-2768,4937,1184,-9009
97417,-15000,-3844,-4232,8287,3665,-10914
97429,-14728,-2728,-5756,9163,5751,-11879
97441,-14860,-1728,-7360,8496,6720,-11105
97453,-13452,-1636,-7320,8216,6682,-11113
97465,-12696,-3788,-5672,10227,8684,-14497
97479,-15296,-6816,-5108,15232,10167,-20677
97491,-12340,-5532,-6568,17691,9862,-23415
97503,-11300,-5184,-7776,17026,12502,-23583
97518,-10380,-5584,-10076,11631,18402,-23222
97530,-16368,-9712,-11628,8718,24402,-21256
97542,-17528,-11308,-12412,7185,25344,-16306
97554,-16716,-10496,-13996,6845,22081,-11568
97566,-15000,-9556,-13732,7391,19893,-11339
97578,-10408,-8088,-12764,8031,20464,-11637
97592,-5140,-9412,-8640,8117,27012,-8949
97604,-7444,-10644,-9684,9925,31839,-9570
97616,-10168,-11928,-10688,11234,31857,-13797
97628,-9392,-11084,-13504,9866,32767,-13184
97643,-9840,-12632,-14652,8213,29259,-12945
97655,-9412,-13292,-14884,7529,24422,-15061
97667,-7492,-12620,-15324,8051,22219,-16484
97679,-6756,-11116,-16452,7451,21033,-16576
97691,-5308,-10380,-15628,5892,20132,-15916
97703,-3116,-10424,-14312,4286,21581,-14711
97715,-1892,-11016,-14384,3180,22918,-16101
97727,-2156,-11740,-14344,2362,24478,-16835
97739,-2780,-13256,-13692,2088,25220,-16847
97753,-4172,-14232,-13936,2669,22366,-16781
97768,-4128,-14408,-14464,3708,20244,-17917
97780,-2460,-12928,-14512,3482,18987,-18560
97792,-988,-12720,-14240,2242,16661,-17058
97804,1012,-11804,-13388,688,15017,-15657
97816,2104,-12020,-12812,-651,13395,-13897
97828,2164,-12256,-11316,-1046,13543,-14046
97840,1676,-13092,-11260,-340,12354,-14289
97852,2944,-12656,-11584,341,10304,-13155
97864,3120,-12128,-10656,-143,8481,-10334
97878,3532,-11996,-11132,55,6954,-8922
97893,4188,-12436,-11256,837,5509,-7670
97905,4348,-12028,-10968,1283,5272,-7309
97917,3484,-11944,-11484,1469,4764,-6435
97929,3992,-11464,-11056,866,2941,-4715
97941,5160,-11544,-10776,773,1925,-4212
97953,5972,-12088,-9976,916,2245,-4590
97965,4796,-12456,-10604,1274,2106,-5193
97977,4376,-12148,-10732,2228,437,-4464
97989,5608,-10900,-9480,1838,-1106,-2733
98001,6444,-10940,-9156,1037,-570,-1767
98016,6356,-11576,-8992,1006,213,-2015
98028,6436,-11708,-9564,1339,705,-2238
98040,6544,-11360,-9732,1591,245,-1747
98052,6684,-11044,-10160,1440,41,-1458
98066,6384,-11168,-10488,965,505,-1526
98078,5796,-11532,-11056,577,556,-1605
98090,5256,-11588,-11460,210,60,-1321
98102,5544,-11848,-10884,-23,-1353,-414
98114,6720,-11616,-9764,-173,-2219,93
98126,7116,-11432,-9476,-191,-1865,-34
98141,6756,-11720,-9420,-13,-809,5
98153,5324,-12180,-10888,-35,-424,544
98165,3972,-12612,-12308,112,-1712,1589
98177,4404,-12492,-12316,392,-3875,3154
98189,5488,-11916,-12000,600,-5869,4116
98201,6588,-11616,-11300,748,-6650,4303
98213,6320,-11760,-11436,888,-6752,4109
98227,5632,-12604,-11860,1370,-8054,3312
98239,4636,-12744,-13244,1647,-9529,3579
98251,4288,-12196,-14456,1976,-12077,4113
98266,6084,-10788,-14024,1203,-14538,5226
98278,8544,-9728,-12604,-315,-14282,5944
98290,8676,-9660,-11800,-1777,-12871,5235
98302,8292,-10400,-11364,-2481,-10672,3930
98314,6772,-10364,-12400,-2929,-8862,3654
98326,5436,-10176,-13048,-3140,-8484,3655
98340,5160,-10512,-13176,-2976,-8840,3177
98352,5488,-10384,-13048,-2479,-8745,1663
98364,6116,-10692,-12580,-2177,-7729,325
98376,5460,-10636,-12524,-2114,-6443,-422
98391,4584,-10632,-13056,-2362,-5884,-1338
98403,4904,-10220,-13312,-2785,-5411,-2080
98415,5056,-10308,-13352,-3366,-4378,-2348
98427,4496,-10748,-13240,-3719,-3287,-2743
98439,3608,-11036,-13396,-3692,-3429,-3070
98451,3348,-11368,-13112,-3584,-3709,-3369
98463,3656,-11252,-12576,-3242,-4292,-3893
98475,4564,-10848,-11896,-3353,-3893,-3900
98487,4880,-10564,-11896,-3681,-2699,-3873
98501,4628,-10704,-12636,-3785,-1552,-4383
98516,3544,-10556,-13560,-3674,-1757,-4949
98528,3616,-10304,-13732,-3855,-2265,-4882
98540,4056,-10100,-13324,-4206,-2457,-4914
98552,4212,-10100,-13216,-4663,-2146,-5024
98564,4392,-10192,-13220,-4928,-1791,-5362
98576,4504,-10136,-13192,-5004,-1673,-6183
98588,4320,-10084,-13428,-5071,-1554,-6824
98600,3848,-10264,-13312,-5263,-1100,-7066
98612,3056,-10908,-13580,-5152,-1075,-7334
98624,2624,-11148,-13736,-4706,-1829,-7665
98641,2728,-10840,-13348,-4155,-2947,-8104
98653,3220,-10648,-12452,-4078,-3446,-8353
98665,3428,-10536,-11244,-4275,-3214,-8639
98677,3140,-10692,-11108,-4480,-2345,-8673
98689,1960,-11244,-11192,-4480,-1809,-8863
98701,1456,-12056,-11072,-4159,-1848,-8570
98713,844,-12484,-10940,-3728,-2002,-7986
98725,280,-12968,-10564,-3173,-2365,-7633
98737,-364,-12876,-10472,-2691,-2831,-7402
98749,-404,-12700,-10240,-2608,-2694,-6580
98764,-740,-13452,-9712,-2522,-2131,-5802
98776,-1104,-14036,-9568,-2373,-1602,-5108
98788,-864,-14124,-9532,-2169,-1143,-4036
98802,-2136,-14580,-9884,-1833,-474,-3011
98814,-3236,-14848,-10092,-1364,-379,-2003
98826,-3792,-14724,-9644,-742,-873,-670
98838,-3492,-14368,-9572,-174,-1422,589
98850,-2868,-14196,-9364,484,-1541,1440
98862,-2468,-13620,-9432,1217,-1359,1906
98874,-1964,-12532,-10396,1541,-1091,2218
98889,-896,-12192,-10468,938,402,3604
98901,-1576,-12976,-11180,738,1168,4261
98913,-2112,-13220,-12116,1130,1194,4665
98925,-2692,-13208,-12972,1450,626,5267
98939,-2584,-13012,-13080,1742,-427,6442
98951,-1936,-12464,-12704,1923,-1169,7243
98963,-1160,-11952,-12480,2084,-1424,7429
98975,220,-11376,-11872,1652,-917,7536
98987,964,-11248,-11980,1134,-37,7650
98999,920,-11656,-12336,1009,838,7581
99014,-252,-12236,-13100,1342,999,7488
99026,-1044,-11768,-13780,1682,101,7719
99038,-312,-10948,-13284,1653,-1052,8268
99050,976,-10488,-12412,1443,-1036,8696
99062,2172,-10116,-11788,1048,-48,8647
99074,2512,-10256,-11500,705,1272,8429
99086,2300,-11228,-11752,720,2576,8512
99100,780,-11740,-13348,1980,2204,8186
99112,668,-10684,-13980,3004,601,8092
99124,1524,-9060,-13592,2890,-335,8312
99139,2416,-8448,-12336,1689,511,8119
99151,3324,-9444,-11508,1002,2005,8229
99163,3108,-10308,-12256,1706,2551,7800
99175,2292,-10124,-13428,3204,1970,6944
99187,1764,-9140,-14000,4160,951,6540
99199,2144,-8164,-13688,4218,-47,6461
99211,2908,-8584,-12128,3973,-134,6400
99223,3136,-8856,-12036,4138,502,6005
99235,3276,-8464,-13132,4626,807,5115
99247,3388,-7744,-14140,4739,664,4378
99264,3096,-7876,-15188,3822,679,3809
99276,2624,-8736,-15640,3199,754,3615
99288,2140,-9324,-16464,2986,389,3528
99300,1784,-10068,-17020,2915,-252,3284
99312,1668,-10544,-18028,3011,-1108,2821
99324,2008,-10592,-18820,2966,-1919,2027
99336,2328,-10796,-19412,2499,-2090,1698
99348,2044,-11272,-20424,1488,-1347,1730
99360,364,-12632,-21628,805,-1339,1450
99372,-848,-13604,-22664,293,-2016,1436
99387,-1988,-14416,-23156,-326,-3928,2460
99399,-2048,-14880,-22840,-673,-5641,3450
99411,-1960,-15144,-22556,-606,-6650,3997
99425,-2052,-15496,-22220,-429,-7362,4129
99437,-2128,-15540,-22332,-307,-7781,4676
99449,-2764,-15136,-22800,-484,-8451,5083
99461,-3744,-15000,-23224,-1196,-9344,5580
99473,-3904,-14804,-22964,-2390,-10472,6555
99485,-3864,-14856,-21760,-3713,-11625,7643
99497,-3108,-14536,-20032,-5138,-11910,8330
99512,-2872,-14300,-18280,-6961,-11168,8728
99524,-3680,-14140,-17536,-8030,-10865,8895
99536,-4508,-14336,-16960,-8542,-11186,9170
99550,-4944,-14556,-15612,-8556,-12026,9491
99562,-3748,-13800,-14780,-8545,-12062,10232
99573,-3344,-12804,-14064,-8860,-11479,10340
99585,-3796,-11688,-13704,-9745,-10342,10261
99597,-4236,-10940,-13408,-11085,-9253,10404
99609,-4488,-10824,-13052,-12143,-8434,10762
99621,-5128,-11060,-13068,-12499,-8174,10727
99636,-5592,-10840,-12780,-12087,-8655,10034
99648,-5360,-9816,-12524,-11911,-8854,9849
99660,-5028,-9032,-12084,-11795,-9081,9717
99672,-5076,-8348,-11452,-12095,-9044,9508
99684,-4792,-8408,-10308,-12418,-8651,9505
99696,-4952,-7688,-9976,-12742,-8338,9251
99710,-5512,-6776,-9536,-12461,-8246,9122
99722,-5760,-6052,-9004,-12223,-8549,9115
99734,-5292,-5548,-7280,-11443,-9016,8979
99746,-4120,-4420,-6048,-10870,-8715,9296
99761,-3604,-2988,-5336,-9805,-7987,8356
99773,-3684,-1820,-4584,-8771,-7401,7142
99785,-3816,-800,-4528,-7964,-6758,6584
99797,-3804,556,-3880,-7312,-6337,6101
99809,-3572,1248,-3268,-6963,-5411,5578
99821,-3304,1604,-2736,-6793,-4031,4901
99833,-3320,1784,-2200,-6433,-2589,4183
99847,-3548,2156,-1728,-5492,-1354,2862
99859,-3864,2464,-1392,-4568,-87,1859
99871,-4708,2708,-1648,-3408,849,870
99886,-4888,2876,-1728,-1773,951,-95
99898,-4860,3172,-1620,-519,883,-450
99910,-4252,3492,-1348,832,879,-1210
99922,-3564,3728,-1248,1984,1489,-1981
99933,-3112,3812,-872,2567,2693,-2525
99945,-3176,3444,-876,3150,3974,-3280
99957,-3124,2888,-984,3856,5187,-4129
99969,-3144,2484,-1468,4396,6724,-4625
99981,-3492,1412,-2328,5186,7954,-5531
99993,-4088,968,-3756,6002,8778,-6355
100010,-5128,188,-5968,7018,9067,-7251
100022,-4328,-372,-6348,8011,8028,-7778
100034,-3588,-916,-6708,8729,7912,-8512
100046,-3216,-1832,-7240,9487,8388,-9573
100058,-2776,-2756,-8044,9964,9292,-10667
100070,-3496,-4028,-9204,10222,9966,-11281
100082,-4612,-4812,-10556,10513,10166,-11604
100094,-6136,-5364,-11912,10778,9292,-11863
100106,-5948,-5560,-12100,10719,8113,-11411
100118,-4044,-5908,-11620,10660,7032,-11114
100133,-2544,-7136,-11680,10799,7733,-11859
100145,-2836,-8792,-12684,11123,9154,-12728
100157,-3816,-10240,-13820,11184,8657,-13145
100171,-5760,-10812,-15516,11391,7107,-12891
100183,-5988,-10884,-15956,11393,5868,-12310
100195,-4716,-11236,-15564,11067,5314,-11779
100207,-3744,-12176,-15592,10426,6162,-11576
100219,-4292,-13704,-16284,9839,7224,-11710
100231,-5428,-15012,-17824,9622,7401,-11500
100243,-6420,-15820,-18860,9933,6143,-11015
100258,-6872,-15816,-19660,9948,4363,-10177
100270,-6460,-15792,-19640,9223,3893,-9508
100282,-7388,-16556,-19816,8154,3885,-8796
100296,-7768,-17204,-19800,7119,3121,-7494
100308,-8460,-16644,-20176,6283,1993,-6167
100320,-8168,-16076,-19572,4916,1261,-4809
100332,-8016,-15876,-19004,3407,621,-3307
100344,-7608,-15400,-18116,2205,-46,-1952
100356,-6612,-15236,-17120,1649,-411,-801
100368,-5812,-14448,-17308,1935,-720,-516
100383,-4988,-11924,-18988,2025,-1432,-996
100395,-4200,-10684,-19740,1197,-1812,-973
100407,-3948,-10452,-20196,201,-2431,-417
100419,-3220,-9620,-20772,-624,-3475,-23
100431,-1392,-8756,-20136,-1536,-4010,81
100443,-588,-8684,-19404,-2214,-4256,-630
100457,12,-8572,-18852,-3148,-3666,-1172
100469,-20,-8700,-19216,-3811,-3038,-1647
100481,-96,-9112,-19296,-4117,-3042,-2137
100493,-80,-8864,-19504,-4274,-3328,-2624
100508,240,-8596,-19740,-4371,-3967,-3375
100520,176,-7824,-20068,-4533,-4895,-4222
100532,180,-7012,-20052,-5090,-5705,-4792
100544,1304,-7188,-18148,-5518,-6340,-5496
100556,1864,-7184,-17236,-6461,-5672,-5853
100568,1864,-7804,-16740,-6955,-4792,-6566
100580,808,-8272,-17076,-6949,-4433,-7590
100592,480,-8200,-16816,-7004,-4727,-8148
100604,276,-8332,-16316,-7300,-4967,-8312
100618,360,-9048,-15512,-7501,-4732,-8706
100633,-112,-9360,-15428,-7396,-4398,-9450
100645,-600,-10020,-14852,-7231,-4635,-10007
100657,-1296,-10000,-13680,-7110,-5090,-10570
100669,-1456,-10120,-12028,-7443,-4830,-10833
100681,-1136,-11200,-10132,-7838,-2989,-10719
100693,-1688,-11812,-10060,-7575,-1203,-10731
100705,-2824,-11980,-10540,-6880,-356,-11178
100717,-3720,-12332,-10436,-6205,-486,-11292
100729,-4132,-12108,-9824,-5756,-578,-10900
100743,-5108,-12688,-9104,-5529,59,-10522
100758,-5848,-14032,-8424,-4922,610,-9760
100770,-6708,-14788,-8652,-4025,489,-9375
100782,-7432,-15360,-8508,-2986,108,-8678
100794,-7700,-14732,-8632,-2337,-123,-7600
100806,-8000,-14596,-8432,-2090,-63,-6061
100818,-7956,-14576,-7912,-1861,19,-4642
100830,-7900,-15124,-7692,-1256,247,-3197
100842,-8216,-15968,-7564,93,11,-2297
100854,-9068,-16056,-8012,1880,-1118,-1493
100866,-8880,-16060,-7532,3307,-2305,-118
100883,-7708,-15432,-6920,4293,-3087,2199
100895,-5988,-15456,-6416,4673,-2631,3482
100907,-4532,-14616,-7064,4682,-1330,4187
100919,-4272,-14624,-8524,4477,386,4715
100931,-4440,-15352,-10556,4244,918,5251
100943,-4816,-15952,-12372,4512,-137,5968
100955,-4900,-16528,-13324,5169,-2146,6458
100967,-4172,-15944,-13276,5940,-4330,7468
100979,-2664,-13764,-13104,6363,-6524,8203
100991,-1084,-11036,-12548,6146,-7658,8195
101006,916,-9516,-11172,5336,-6759,8214
101018,1536,-9492,-10800,4789,-5695,8255
101030,1504,-8552,-11256,4643,-5085,7603
101042,1228,-7136,-11756,4511,-4493,6897
101056,-684,-6292,-12644,4079,-3457,6387
101068,-1460,-6504,-12572,3950,-2916,5750
101080,-3064,-7196,-13092,3815,-2612,5316
101092,-3796,-7416,-14172,3598,-2561,5013
101104,-4160,-6900,-14920,3759,-3261,4477
101116,-4696,-4792,-15644,3868,-3697,3496
101131,-5936,-4172,-15496,3390,-2816,2454
101143,-7688,-4068,-15392,2832,-1944,1685
101155,-8788,-4668,-14932,2099,-844,2025
101167,-10440,-5496,-15064,2164,5,2291
101179,-11456,-5592,-15856,2528,919,2044
101191,-11972,-5012,-16700,2009,2394,2421
101203,-13796,-4564,-18760,1444,2461,2609
101217,-14176,-4228,-19836,227,1307,3371
101229,-13820,-3840,-20028,-1001,83,4344
101241,-13812,-4108,-18700,-2048,-1268,4609
101256,-14148,-5100,-16440,-3314,-1579,5165
101268,-13752,-6404,-15332,-3147,-1967,5625
101280,-12564,-6128,-15368,-2925,-2370,5589
101292,-11388,-5652,-14772,-2673,-2803,5333
101304,-10332,-5912,-14104,-3357,-1656,5222
101316,-9392,-6472,-13816,-4840,95,5883
101330,-7536,-7412,-13452,-5855,651,7100
101342,-7360,-7504,-13344,-5746,576,7170
101354,-3744,-6560,-13052,-5484,119,6771
101366,-2512,-6740,-12944,-5511,1286,6007
101381,-1924,-8048,-12416,-5726,2992,5576
101393,-1492,-9796,-12284,-5201,2791,5119
101405,-2472,-11308,-13272,-3900,2129,4175
101417,-1696,-12392,-13044,-2354,773,3539
101429,964,-12260,-12988,-1577,67,4077
101441,3412,-10772,-13740,-1027,-284,2907
101453,3208,-11468,-14164,-312,-290,-860
101465,784,-14004,-15180,226,1437,-3695
101477,-2452,-14764,-17316,636,541,-4886
101489,-3648,-14604,-17592,8,-2128,-2949
101506,-2460,-15040,-15068,-1184,-3143,-419
101518,-896,-15376,-14352,-1214,-2504,442
101530,-116,-15560,-13784,-992,-2306,657
101542,160,-15236,-13508,-873,-2501,1350
101553,1180,-14916,-13080,-871,-2429,2853
101565,2952,-13648,-13328,-1217,-2042,4172
101577,1832,-14560,-13540,-1827,-641,4770
101589,-2088,-14832,-15956,-2555,-809,5057
101601,-1524,-14688,-15604,-3891,-3687,7695
101613,1516,-12676,-14060,-5495,-5519,10626
101630,2952,-10632,-12416,-6151,-4066,10499
101642,1564,-10500,-12368,-4877,-2580,9004
101654,-2012,-10712,-13676,-2818,-3178,7165
101666,-2944,-9896,-14324,-1120,-5829,6659
101678,-1572,-9312,-13232,-569,-7268,6208
101690,-676,-7720,-12936,-445,-7440,4436
101702,-176,-6268,-11288,-1553,-4662,3028
101714,-4488,-5880,-11904,-2270,-2322,2608
101726,-8128,-6476,-11756,-1173,-2908,1821
101738,-9204,-6512,-11564,1773,-6197,366
101753,-3448,-2916,-8648,3404,-6162,-1887
101765,-4612,-256,-10404,1736,-2102,-3653
101777,-8324,-720,-13668,-507,1898,-4961
101791,-12164,-1520,-13728,-797,482,-5416
101803,-13616,-1500,-12744,-469,-2676,-4746
101815,-11160,-820,-9424,-85,-3919,-4378
101827,-10832,-568,-8728,298,-2616,-4887
101839,-9196,-708,-7740,148,882,-6168
101851,-13012,-264,-10248,-1084,3695,-7246
101863,-14792,1392,-12020,-2591,3347,-6611
101878,-14368,1220,-11320,-3383,37,-4855
101890,-12368,608,-8360,-2103,-867,-4716
101902,-12736,-44,-6848,251,246,-6445
101913,-12484,188,-7648,2002,1886,-8150
101927,-15868,484,-10688,1844,3929,-8418
101939,-17132,628,-11944,862,3509,-7049
101951,-16884,640,-11316,-9,2133,-4982
101963,-16160,956,-10172,-549,2229,-4196
101975,-14988,1488,-9624,-1023,3687,-4026
101987,-16788,1280,-10776,-1178,4892,-4063
102002,-17780,2000,-11996,-812,3349,-2969
102014,-16676,2208,-11440,-449,1447,-1689
102026,-14484,1728,-10360,-292,835,-789
102038,-13412,940,-9636,-481,2331,-587
102050,-13964,-116,-10312,-516,3730,-975
102062,-14484,-1348,-10820,-534,4310,-278
102074,-15804,-2232,-11360,-755,3828,960
102088,-16156,-1928,-12180,-1039,1824,2603
102100,-14628,-1196,-11172,-1509,-360,4855
102112,-11260,-1020,-9348,-1819,-1933,5687
102127,-7888,-2148,-7040,-1711,2,5578
102139,-9188,-2908,-7740,-1314,2460,3838
102151,-9728,-3040,-9256,-879,2960,3459
102163,-10680,-4772,-9024,-274,1265,4595
102175,-11324,-5268,-9940,1145,-1860,5991
102187,-7816,-5872,-8472,2688,-3836,7450
102199,-5436,-6164,-7364,3802,-3759,8292
102211,-3848,-5992,-7820,5263,-3835,6329
102223,-3188,-6396,-7980,5371,-2038,3658
102235,-5176,-6876,-9916,3455,1681,2855
102252,-5960,-7940,-11636,138,3992,5585
102265,-8284,-10876,-11948,-468,2789,7186
102277,-9344,-13224,-11136,2028,93,6568
102289,-10932,-13856,-12824,6964,-4383,4175
102301,-9676,-12772,-14228,12226,-9716,1248
102313,-7592,-9664,-16216,15571,-14887,-2058
102325,-5688,-6492,-17552,16136,-18402,-6080
102337,-1448,-5944,-13676,13102,-15966,-8412
102349,-1164,-7016,-12292,7028,-7316,-6400
102361,-3212,-9028,-12436,1919,-146,-2259
102378,-7252,-10536,-14288,-1491,4452,976
102390,-9712,-11236,-14836,-497,3321,-274
102402,-10924,-11384,-16644,2186,-124,-3100
102414,-11564,-11152,-17600,4599,-4941,-5988
102426,-5804,-9504,-14156,4600,-6621,-6917
102438,-4028,-8648,-13416,1876,-2277,-5903
102450,-6796,-9332,-14816,-1281,3434,-5459
102462,-9604,-10468,-16064,-2940,5516,-4123
102474,-10996,-11180,-16176,-2977,3660,-2585
102486,-9904,-10372,-15428,-2547,1494,-1825
102501,-9120,-9800,-14652,-1791,341,-2514
102513,-8164,-8724,-14716,-1670,-406,-2945
102525,-6792,-8044,-14320,-1621,-1511,-2845
102539,-6988,-8536,-13304,-1617,-1543,-4125
102551,-8740,-8948,-14376,-1294,-1698,-4796
102563,-8292,-8928,-13320,-927,-2813,-3917
102575,-8040,-8412,-13364,-1356,-2656,-2848
102587,-7556,-7864,-13304,-2272,-1783,-2010
102599,-7472,-8144,-12752,-2563,-1262,-1770
102611,-8120,-8036,-12828,-2580,-979,-1781
102626,-8184,-7668,-13168,-2368,-1470,-1997
102638,-9372,-8116,-13336,-1608,-2339,-2083
102650,-9908,-8284,-13568,-705,-3766,-2686
102664,-8528,-7328,-13316,-395,-3821,-2934
102676,-7728,-7112,-12744,-1422,-2549,-1992
102688,-7968,-7188,-12560,-2242,-781,-754
102700,-8100,-6616,-13172,-2869,1020,1135
102712,-10196,-8708,-11528,-2769,396,353
102724,-10380,-8452,-12384,-1102,-1627,-546
102736,-8604,-7176,-12284,-478,-1989,-1303
102751,-7808,-6416,-12244,-1026,-1965,-1193
102763,-8680,-7264,-11724,-1183,-732,-1347
102775,-9388,-7548,-11992,-552,-621,-1931
102787,-9752,-7900,-11928,286,-1401,-2317
102799,-9804,-7560,-12604,502,-2329,-1660
102811,-8656,-7424,-11632,39,-2227,-1018
102825,-9192,-7456,-11860,-152,-2049,-924
102837,-9096,-7720,-11404,300,-2691,-1407
102849,-9216,-7792,-11480,834,-3180,-1674
102861,-9228,-7648,-10976,1162,-3420,-1791
102876,-9508,-8152,-10964,1907,-4248,-2131
102888,-9380,-7856,-11080,1932,-4653,-2223
102900,-9052,-7788,-10776,1682,-4269,-1835
102912,-9740,-8040,-11024,1591,-3932,-1184
102924,-9604,-7716,-11320,1767,-4179,-1173
102936,-9076,-7692,-10620,1520,-3776,-1046
102950,-8476,-7460,-10352,809,-2061,-778
102962,-11480,-6208,-12912,-1397,-4201,4433
102974,-11656,-7264,-12292,-712,-3279,2529
102986,-9444,-6604,-11324,-375,-4181,2682
103001,-9564,-6964,-10968,-997,-2552,1620
103013,-10228,-7448,-10992,-905,-2056,574
103025,-10208,-7876,-10332,-658,-2620,1057
103037,-10656,-7536,-10980,-293,-3119,1026
103049,-10180,-6768,-11436,-133,-3329,365
103061,-8580,-6336,-10580,-775,-1973,-350
103073,-7816,-6072,-9976,-1260,-248,-923
103085,-8536,-6436,-10644,-1952,742,-175
103097,-10324,-7176,-10764,-2102,-158,1703
103111,-10992,-7388,-11404,-2013,-2635,3521
103126,-9416,-6292,-11256,-2592,-4168,6115
103138,-7908,-6376,-9492,-1873,-2918,8659
103150,-10148,-7440,-9372,-1681,-2095,7201
103162,-10888,-7164,-9588,-222,-4275,6392
103174,-11316,-7736,-11492,-896,-7232,10231
103186,-11320,-5724,-9992,-1443,-4133,6637
103198,-11872,-6264,-10440,-1525,-4593,6958
103210,-12072,-6576,-10236,-2012,1262,2929
103222,-13240,-6224,-10312,-1153,887,1125
103234,-12436,-6096,-8500,-113,-6348,4511
103251,-12916,-5724,-9900,-456,-2559,4960
103263,-12116,-4700,-10568,-843,-1210,2697
103275,-11548,-5068,-9632,-827,-1175,3088
103287,-11756,-4792,-9964,-144,-316,1359
