Time,AccelX,AccelY,AccelZ,GyroX,GyroY,GyroZ
757168,4176,-9168,-13088,-1613,-1724,-3290
757180,4192,-9076,-13516,-1546,-1722,-3231
757195,4148,-8956,-13072,-1527,-1943,-3176
757217,3648,-8444,-12540,-1626,-2490,-3162
757229,3544,-8472,-12640,-1612,-2651,-3062
757241,3272,-8688,-12648,-1557,-2574,-2887
757253,3052,-8764,-12512,-1472,-2249,-2715
757265,2996,-8624,-12536,-1353,-1896,-2545
757277,2988,-8316,-12756,-1209,-1555,-2356
757289,2940,-7944,-12916,-1177,-1357,-2212
757301,3464,-7904,-13024,-1009,-1165,-2107
757313,3588,-7976,-12836,-912,-1191,-2122
757327,3776,-7972,-12852,-646,-750,-2001
757344,3688,-8384,-12868,-455,-499,-2041
757356,3884,-8468,-12840,-333,-156,-2081
757368,4132,-8212,-12744,-133,56,-2225
757380,4208,-8312,-12828,136,484,-2118
757392,3744,-8144,-12908,317,840,-2044
757404,3152,-8360,-12900,469,1292,-1951
757416,2732,-8284,-12888,556,1645,-1809
757428,2740,-8248,-12932,563,1754,-1550
757440,3028,-7808,-12764,478,1352,-1432
757452,3332,-8068,-12704,402,1015,-1248
757468,3528,-7904,-12568,404,694,-1007
757480,3548,-7772,-12600,482,533,-715
757492,3124,-7968,-12740,373,136,-525
757504,3048,-8420,-12824,383,72,-312
757518,3284,-8404,-12796,300,548,-44
757530,3164,-8032,-12880,291,775,-84
757542,3836,-8328,-12912,214,901,-112
757554,4656,-8016,-12784,235,714,-275
757566,4888,-7976,-12716,232,572,-335
757578,4120,-8584,-13348,204,735,-434
757594,3572,-8660,-14024,229,1828,-448
757606,4312,-8428,-13880,135,2196,-323
757618,3884,-8104,-13540,-141,1883,-357
757630,3720,-7916,-12784,-362,1308,-357
757644,3640,-7604,-12384,-751,594,-373
757656,3460,-7720,-12572,-1037,138,-396
757668,3916,-8004,-12964,-1139,-310,-244
757680,3992,-7940,-13124,-1254,-587,-110
757692,3780,-8412,-13600,-1322,-521,54
757704,4408,-8684,-13628,-1391,-552,273
757720,4784,-8276,-13348,-1314,-521,425
757732,4240,-8300,-12944,-1355,-821,536
757744,3984,-8312,-12940,-1320,-852,699
757756,3896,-8200,-12996,-1339,-1004,689
757768,4084,-8028,-13020,-1216,-897,882
757780,3568,-7860,-12764,-1189,-751,998
757792,3412,-8032,-12940,-1094,-545,1162
757806,3668,-8032,-12812,-1077,-338,1212
757818,3572,-7888,-12964,-1032,-122,1185
757830,3876,-8028,-13428,-1008,-36,1379
757846,4168,-7884,-13396,-994,-254,1348
757858,4008,-7760,-13064,-944,-199,1302
757870,3560,-7664,-12748,-916,-5,1256
757882,3196,-7772,-12864,-889,281,1188
757894,3508,-7972,-13308,-917,508,1151
757906,3808,-7848,-14016,-874,794,1265
757918,3396,-7884,-14044,-1005,1045,1281
757930,3536,-7464,-13532,-1034,1354,1147
757942,3724,-7276,-13504,-1110,1395,1072
757954,4108,-7568,-13640,-1303,681,945
757971,4944,-7664,-13416,-1387,-57,802
757983,4684,-8036,-13376,-1495,-624,621
757995,4172,-8248,-13248,-1462,-758,556
758007,3944,-8208,-13000,-1388,-504,506
758019,3908,-8388,-13136,-1279,-121,381
758031,4000,-8016,-13132,-1250,-88,226
758043,4072,-7376,-13208,-1179,-236,293
758055,3108,-6980,-13164,-1153,-326,263
758067,2600,-7292,-13056,-1173,-298,427
758079,2800,-7240,-13124,-1296,-509,469
758095,3512,-6896,-13516,-1286,-1213,742
758107,3820,-7588,-13240,-1340,-1780,1014
758119,3256,-7604,-12852,-1341,-2075,1032
758133,2956,-7552,-13256,-1305,-2162,1174
758145,2804,-7660,-13328,-1283,-2104,1205
758157,2808,-7692,-13688,-1136,-1687,1349
758169,2360,-7784,-13652,-1046,-1388,1534
758181,2332,-7680,-13252,-952,-997,1776
758193,2480,-7084,-12924,-883,-683,1749
758205,3056,-6976,-12648,-823,-899,1469
758221,3764,-7116,-12672,-611,-905,1197
758233,2920,-7228,-13076,-442,-406,1077
758245,2252,-7736,-14500,-315,361,1140
758257,1920,-7476,-15016,-328,1164,1109
758271,2784,-7320,-15180,-352,1628,1348
758283,3488,-7184,-14456,-550,1156,1237
758295,3796,-6972,-13852,-686,126,1183
758307,3676,-7336,-13080,-830,-733,971
758319,3340,-7396,-13032,-781,-1084,756
758331,2636,-7176,-13240,-660,-610,750
758347,2308,-6876,-13636,-622,-129,418
758359,3104,-7252,-14016,-569,-262,333
758371,3412,-7276,-13800,-585,-709,289
758383,2904,-7460,-13868,-614,-894,372
758395,2360,-7364,-14072,-633,-903,368
758407,2580,-7468,-13792,-838,-780,895
758581,2384,-7212,-13916,-925,-892,887
758598,2516,-7268,-14208,-871,-949,849
758610,2468,-7224,-13876,-820,-729,800
758622,2448,-7144,-13564,-743,-389,761
758634,2320,-6960,-14040,-638,-126,779
758646,2044,-6940,-13908,-620,-133,658
758658,1972,-7220,-13812,-544,46,764
758670,1868,-7148,-13900,-491,287,870
758682,1468,-6960,-13900,-455,408,967
758694,1820,-6868,-13704,-382,677,1060
758706,1712,-6780,-13468,-293,860,1124
758722,2144,-6828,-13660,-143,983,1148
758734,2384,-7113792,-838,-780,895
758581,2384,-7212,-13916,-925,-892,887
758598,2516,-7268,-14208,-871,-949,849
758610,2468,-7224,-13876,-820,-729,800
758622,2448,-7144,-13564,-743,-389,761
758634,2320,-6960,-14040,-638,-126,779
758646,2044,-6940,-13908,-620,-133,658
758658,1972,-7220,-13812,-544,46,764
758670,1868,-7148,-13900,-491,287,870
758682,1468,-6960,-13900,-455,408,967
758694,1820,-6868,-13704,-382,677,1060
758706,1712,-6780,-13468,-293,860,1124
758722,2144,-6828,-13660,-143,983,1148
758734,2384,-7172,-13516,-45,1081,1100
758746,2816,-7192,-13876,95,1096,1136
758758,2440,-7272,-14248,189,1084,1226
758772,2100,-7192,-13948,318,1322,1304
758784,2376,-6660,-14000,416,1631,1392
758796,2308,-6780,-13692,488,1472,1286
758808,2564,-7288,-13612,529,1282,1273
758820,2364,-7276,-13548,628,1455,1262
758832,2100,-7256,-13764,787,1487,1323
758848,1856,-7432,-13540,934,2155,1341
758860,1684,-7544,-13464,1032,2587,1431
758872,1848,-7500,-13976,1021,2778,1606
758884,2268,-7764,-13820,891,2699,1773
758896,2496,-7680,-14064,811,2372,1932
758908,2448,-7192,-13788,703,2114,1922
758920,2668,-6860,-13404,514,1685,1755
758934,3340,-7252,-13448,413,1263,1440
758946,3320,-7756,-13868,403,787,1339
758958,3128,-7724,-13896,409,557,1119
758974,2720,-7792,-13612,563,913,1034
758986,2596,-7744,-13608,632,1151,944
758998,2508,-7504,-13608,661,1245,903
759010,2084,-7216,-13308,609,1052,993
759022,2204,-7084,-12952,512,1034,946
759034,2428,-7060,-13188,505,928,866
759046,2444,-7264,-13400,497,833,657
759058,2752,-7492,-13656,607,1232,481
759070,2888,-7760,-13644,769,1665,319
759082,3092,-7956,-13696,827,1966,-24
759099,4028,-8108,-13904,929,2220,-353
759111,3952,-8264,-14088,890,1887,-442
759123,3668,-8596,-13720,817,1651,-596
759135,3524,-8232,-13748,728,1529,-713
759147,3384,-8040,-13692,629,1207,-873
759159,3220,-8168,-13512,582,907,-771
759171,2664,-7980,-13152,487,804,-703
759183,2184,-7760,-13036,399,754,-516
759195,2084,-7652,-13272,295,723,-425
759207,2064,-7196,-13140,201,745,-300
759223,2848,-7768,-12968,33,562,-236
759235,3520,-7548,-13240,-124,16,-498
759247,4176,-7536,-13228,-108,-354,-736
759259,4416,-8052,-13512,29,-158,-1184
759273,4820,-8352,-13636,294,435,-1661
759285,4684,-8396,-13772,491,693,-2004
759297,4244,-8420,-13724,584,647,-2317
759309,4128,-8128,-13664,637,442,-2377
759321,3056,-7752,-13412,507,131,-2375
759333,2128,-7704,-13564,403,-149,-2243
759349,1472,-8012,-13376,241,-44,-2151
759361,2200,-7756,-13084,129,243,-2063
759373,2436,-7560,-12912,128,388,-1780
759385,2348,-7720,-13100,-12,398,-1571
759399,3104,-7616,-13372,-167,-13,-1388
759411,3644,-7920,-13336,-345,-931,-1141
759423,3216,-8200,-13352,-499,-1212,-798
759435,2436,-8096,-13528,-582,-1109,-674
759447,3088,-7448,-13636,-633,-735,-518
759459,3132,-7252,-13660,-661,-1010,-526
759475,3160,-7748,-13696,-744,-1521,-448
759487,3096,-7952,-13340,-679,-1106,-463
759499,3096,-7816,-13280,-537,-589,-540
759511,2964,-7424,-13112,-429,-405,-607
759523,2856,-7488,-13596,-419,-237,-456
759535,2432,-7348,-13768,-380,-604,-449
759547,2724,-7476,-13456,-423,-511,-209
759561,2776,-7556,-13512,-309,-508,-219
759573,3120,-7916,-12960,-327,-665,-129
759585,3224,-8044,-13068,-286,-496,-83
759601,2876,-7928,-13484,-220,-388,13
759613,3080,-7728,-13752,-215,-721,57
759625,3244,-7820,-13676,-136,-1172,309
759637,2444,-7336,-12968,-142,-1402,404
759649,1908,-7268,-12548,-78,-1192,494
759661,1860,-6984,-12476,46,-694,443
759673,1984,-6888,-12460,227,-286,440
759685,2224,-7560,-13100,294,-171,658
759697,2508,-8356,-13928,253,-419,914
759709,3108,-8268,-14304,270,-313,1083
759726,2500,-8068,-14284,186,-175,1364
759738,2152,-8008,-14208,34,-6,1478
759750,2256,-7724,-13976,-65,-21,1560
759762,2172,-7600,-13616,-187,-44,1699
759774,2000,-7508,-13436,-309,-28,1761
759786,2168,-7736,-13776,-363,-78,1871
759798,2412,-8000,-13536,-449,-305,1970
759810,2884,-8456,-13464,-547,-365,2085
759822,3224,-8540,-13568,-596,-719,2104
759834,3112,-7884,-13344,-620,-1028,1991
759850,2632,-7728,-13204,-528,-1372,1894
759862,2436,-8116,-13108,-542,-1569,1835
759874,2024,-7484,-13212,-471,-1447,1804
759886,1812,-7972,-13464,-484,-1555,1928
759900,1848,-8100,-13404,-439,-1390,1984
759912,1692,-7856,-13368,-279,-1001,2078
759924,1328,-7332,-13244,-96,-386,2146
759936,1000,-7372,-13256,53,281,2093
759948,1724,-7856,-13464,140,803,2052
759960,2384,-7684,-13728,249,653,1914
759976,3016,-8148,-13540,453,916,1827
759988,2332,-8212,-13700,649,1009,1572
760000,2272,-7748,-13144,770,1598,1323
760012,2424,-7600,-12776,884,1632,1180
760024,2228,-7488,-12660,817,1220,872
760036,2320,-7904,-13488,728,898,701
760048,2440,-8152,-13880,706,328,530
760062,3084,-8880,-13992,712,787,498
760074,2256,-8556,-14048,748,1037,243
760086,1952,-8028,-13472,675,1399,17
760102,2424,-7408,-13372,559,1610,-186
760114,1892,-7864,-13584,490,1055,-312
760126,2160,-8420,-13564,420,981,-323
760138,2416,-8220,-13540,425,897,-431
760150,2428,-8176,-13424,416,751,-519
760162,2156,-8024,-13124,385,720,-670
760174,2276,-7844,-12976,381,811,-784
760186,1904,-8032,-12912,349,667,-782
760198,1988,-8404,-13056,271,549,-790
760210,1724,-8472,-13252,225,365,-664
760227,2340,-8436,-13728,105,442,-556
760239,2228,-8480,-13820,30,20,-367
760251,1716,-8440,-13432,-178,-152,-205
760263,1688,-8052,-13008,-329,-286,-124
760275,1996,-7772,-12800,-397,-441,-81
760287,1656,-6928,-12604,-399,-529,-231
760299,1760,-7360,-12768,-350,-522,-182
760311,1656,-8312,-12732,-199,-455,-175
760323,1484,-8392,-13160,-78,139,-204
760335,2328,-8840,-13476,98,353,-150
760352,2768,-8796,-13288,278,870,-51
760364,2004,-8148,-13236,272,1088,-171
760376,1840,-7768,-12856,296,1209,-233
760388,1964,-7612,-12704,286,1440,-265
760400,2192,-7600,-12616,370,1355,-317
760412,2040,-7612,-12340,460,1168,-634
760424,2048,-7172,-12252,688,1784,-681
760436,1848,-7164,-13124,639,2183,-892
760448,2232,-8092,-13304,811,2004,-1240
760460,3828,-7988,-12764,985,2723,-1413
760476,3972,-6980,-13024,1297,3231,-1722
760488,3832,-6924,-12628,1468,3586,-1875
760500,3540,-7268,-12336,1405,4217,-2283
760512,3212,-7584,-12712,1214,5173,-2787
760526,4028,-8072,-11980,606,6525,-3253
760538,5360,-6792,-12176,245,7633,-3137
760550,3008,-6376,-11400,67,9861,-3363
760562,2768,-6928,-11780,390,12395,-3037
760574,3528,-4900,-10148,746,15266,-2974
760586,5036,-3912,-11304,1902,17190,-2446
760602,6608,-2964,-5760,1122,20930,-600
760614,10088,-2800,-5212,1362,24620,3539
760626,9488,-6436,-4792,-217,22606,3858
760638,13284,-6328,-2824,-1802,19193,5892
760650,18176,-6916,-2624,-3684,16241,10211
760662,17116,-8672,-2252,-5986,11374,11282
760674,18280,-8888,-2656,-7854,7830,12196
760688,19780,-9392,-2584,-9853,6605,15424
760700,19160,-9704,-3436,-11437,6092,16954
760712,17932,-9616,-4624,-12648,5469,17658
760728,17312,-10264,-6188,-13538,4921,18957
760740,17448,-10596,-7368,-14320,4030,19945
760752,17956,-9980,-8472,-14767,3435,20855
760764,18036,-9488,-9124,-15221,2565,22109
760776,17924,-9048,-10212,-15714,1921,23485
760788,17124,-8468,-11032,-16029,1985,24741
760800,16228,-8372,-11136,-15958,2346,25745
760812,15696,-8568,-11544,-16050,2709,26693
760824,14972,-8700,-11312,-16410,2853,27774
760838,14936,-8032,-11916,-16404,3058,28724
760853,14884,-7100,-12684,-16398,2769,30006
760865,14620,-6248,-12848,-16303,2409,30840
760877,13984,-5668,-13080,-16232,2186,31613
760889,12928,-5544,-12956,-16434,2391,32277
760901,12076,-5224,-12968,-16561,2674,32644
760913,11496,-4588,-13228,-16476,2831,32767
760925,10740,-4132,-13696,-16315,2812,32767
760937,9920,-3796,-13944,-16074,2596,32767
760949,9508,-3108,-14268,-15674,2464,32767
760963,9536,-2536,-14288,-15365,2525,32767
760978,9724,-1884,-14184,-15236,2225,32767
760990,9292,-1228,-14384,-15281,1669,32631
761002,8412,-728,-14556,-14950,1130,32022
761014,7580,-396,-14800,-14411,982,31392
761026,7112,120,-14756,-13603,1159,30598
761038,7084,792,-15376,-12830,1430,29791
761050,7268,1652,-15632,-11691,1531,28900
761062,6848,2212,-15688,-10739,1213,27892
761074,6676,2460,-15488,-9727,964,26795
761086,6444,2472,-15148,-8839,997,25933
761103,5372,2760,-15580,-7874,1162,24514
761115,4860,3104,-16304,-7021,1304,23247
761127,4532,3796,-16560,-6093,1608,22008
761139,4140,4168,-16768,-5039,2096,21075
761151,4124,4400,-17096,-3729,3350,20461
761163,4140,3972,-16944,-2665,4674,19678
761175,4600,3552,-16736,-1939,5412,18557
761187,4696,2972,-16588,-1790,5373,17284
761199,4468,2584,-16540,-1933,4824,15616
761211,4148,2996,-17484,-1833,3965,13823
761227,3788,4088,-17412,-1350,2333,11756
761239,3728,4248,-17248,-1025,1209,10533
761251,4000,4104,-16912,-856,92,9641
761263,4268,4548,-16976,-457,-1229,8919
761277,3384,5020,-16712,181,-2623,7637
761289,2768,5136,-16412,783,-3209,6709
761301,1936,5188,-16696,1347,-2698,5762
761313,1252,6108,-16740,2073,-1727,4749
761325,1236,7272,-17100,3066,-556,3806
761337,1428,8240,-17128,4130,193,3050
761353,1716,8080,-16216,5028,753,2338
761365,2104,8420,-16148,5564,1256,2702
761377,1080,8360,-15676,5822,1214,3001
761389,-72,7556,-15672,5550,1530,2961
761401,-900,6804,-15740,5097,2620,3458
761413,-2036,5844,-15700,4619,3554,3964
761425,-2932,4784,-16556,4301,4602,4018
761439,-2952,3744,-16912,4114,5702,3733
761451,-2128,3784,-16864,3885,6119,3559
761463,-1692,3896,-16992,3625,6117,3545
761479,-1728,3956,-16832,3452,5874,3463
761491,-2084,3936,-16452,3427,6078,3204
761503,-2828,3760,-16100,3485,6606,2946
761515,-2816,3268,-15944,3778,8175,2751
761527,-2200,2188,-16020,3969,9624,3356
761539,-2108,1684,-15956,3963,10529,3245
761551,-964,1048,-16040,3829,10991,3236
761563,-508,396,-15684,3551,10828,2986
761575,-156,76,-15664,3190,10221,2735
761587,184,-668,-15940,2763,9824,2598
761604,1852,300,-16664,2014,6753,3955
761616,524,252,-17468,1809,6048,3154
761628,-168,472,-15852,1920,6336,1245
761640,-152,-928,-15692,2314,7558,2029
761652,-520,-2092,-16192,2676,9350,2311
761664,308,-1424,-16712,3448,11449,1547
761676,2856,-1224,-16640,3663,12682,1187
761688,3992,-568,-16968,3523,11737,937
761700,4704,-1456,-16584,3407,10659,1123
761712,5040,-2240,-16372,3331,9791,1561
761729,3716,-3252,-16560,3552,8795,1336
761741,7688,-3536,-15152,3485,8948,2577
761753,3444,-3748,-15028,3431,7459,1058
761765,5208,-4264,-15572,3296,7464,1656
761777,4052,-4712,-14460,3127,6393,2676
761789,3548,-5096,-13868,2746,6342,1991
761801,2864,-3876,-14116,2561,6640,1974
761813,2788,-3716,-14164,2565,7219,1624
761825,4008,-2812,-14288,2512,7744,1077
761837,4672,-1808,-14408,2273,7357,370
761853,6352,-1500,-14768,2269,6434,423
761865,6100,-1036,-14332,2218,5029,328
761877,6892,-136,-14008,2391,4433,394
761889,6880,664,-13868,2407,3331,752
761903,6948,224,-13488,2462,2385,1163
761915,7160,-692,-13048,2530,1679,1231
761927,5964,-724,-12088,2741,1625,1591
761939,5200,-1688,-11728,2698,1937,1352
761951,5524,-1492,-11780,2732,2387,1094
761963,5504,-444,-11708,3023,3539,408
761979,6488,16,-11760,2961,4339,797
761991,7036,-1136,-11220,2579,3916,1145
762003,8544,-1016,-11388,2134,2767,858
762015,8472,-568,-11556,1547,1586,1071
762027,5428,-292,-12456,912,141,973
762039,5624,-656,-11452,660,-248,-883
762051,4936,-1516,-11212,-278,230,-2710
762065,5096,-2676,-9400,-1126,1516,-4210
762077,7472,864,-11372,-1813,4249,-4131
762089,9944,1528,-12952,-2234,2360,-3597
762105,10168,-892,-15392,-3134,2097,-4885
762117,11496,-1732,-14868,-3216,959,-5878
762129,10924,-1264,-13964,-3939,716,-6740
762141,10384,-504,-13644,-4721,113,-7065
762153,10212,1148,-13328,-4604,476,-5934
762165,11600,1912,-13660,-5134,1521,-5262
762177,13136,2308,-13720,-5885,1959,-4456
762189,13824,2312,-12768,-7021,874,-3494
762201,12164,2704,-6828,-8366,-1416,-2890
762215,13556,2844,-11504,-9599,-3989,-2911
762231,12448,2860,-11176,-11126,-5345,-2818
762243,11420,2484,-10952,-12772,-6197,-2486
762255,9684,2440,-11036,-13500,-5673,-2136
762267,9120,3472,-11400,-14294,-4983,-2346
762279,9088,4820,-11620,-14687,-4663,-2632
762291,8496,6512,-10548,-15303,-3946,-2500
762303,8884,7604,-9960,-16330,-3063,-2415
762315,8932,8692,-9724,-17363,-1797,-2482
762327,8404,10408,-9156,-18293,-728,-2632
762339,8956,11748,-9112,-19245,900,-3680
762356,9172,14592,-7600,-20747,2864,-4316
762368,10096,15340,-7924,-22146,4136,-4140
762380,12540,14868,-9340,-22850,5283,-3963
762392,11812,13864,-9336,-23349,6756,-5743
762404,12212,13436,-10340,-23426,8278,-8595
762416,11532,12152,-10808,-23259,11200,-12272
762428,15052,16364,-8880,-22735,12380,-8726
762440,15532,13848,-11288,-21993,12661,-9748
762452,16420,14328,-10952,-20766,12288,-10852
762464,16100,15516,-10600,-19586,11937,-11593
762480,13916,16720,-8592,-18754,12874,-12891
762492,14924,17492,-7160,-17850,15506,-13696
762504,17600,18996,-7124,-16218,17209,-13927
762518,16184,18560,-6804,-14163,18932,-15676
762530,17088,17376,-6508,-13072,20916,-17114
762542,19416,18192,-6820,-11822,22622,-17094
762554,20868,19892,-6348,-10661,23987,-17827
762566,22604,17832,-6236,-9497,26090,-18521
762578,21904,17300,-5664,-8291,27025,-19099
762590,22452,17540,-7904,-7146,26126,-21007
762606,18804,16244,-7788,-6593,26369,-21631
762618,20236,18852,-6692,-5042,26459,-23491
762630,21516,22408,-7480,-4416,26392,-21021
762644,19740,20144,-8636,-3012,27702,-24913
762656,18044,22168,-8584,-1864,28153,-27597
762668,19844,24360,-8904,14,28317,-29722
762680,21672,25772,-9812,1885,28346,-26682
762692,20140,25340,-9016,3328,26678,-27466
762704,19780,25348,-8752,4246,25431,-28270
762716,19752,24676,-8092,5788,24412,-27903
762732,16172,23500,-7340,7239,23491,-28800
762744,15968,23904,-5616,8242,23288,-28751
762756,14760,22932,-4908,9544,23490,-31326
762768,13808,22864,-4920,10257,24447,-31437
762780,12304,24212,-4968,11303,24579,-32768
762792,12948,23572,-4840,13006,25294,-32768
762806,11912,23992,-3884,15816,26270,-31822
762818,11268,23928,-3280,18154,25598,-32114
762830,10772,23568,-3120,20267,25031,-32720
762842,9556,22408,-2692,21906,24980,-32403
762858,6808,21264,-3756,25141,27308,-31271
762870,6756,19136,-5660,28734,29915,-28767
762882,5968,18448,-6920,32326,31555,-27797
762894,6320,17504,-7364,32767,32767,-25976
762906,7036,14876,-10024,32767,32767,-22732
762918,6212,13972,-10888,32767,32767,-18667
762932,8688,13280,-12024,32767,32767,-15817
762944,10736,11700,-13532,32767,32767,-11537
762956,11736,9888,-11848,32767,29777,-10218
762968,13716,8700,-10260,32767,24620,-10514
762984,16056,8684,-7264,32767,23793,-7309
762996,23068,5796,-6436,32767,23894,-1534
763008,28264,4760,-8004,32767,18470,504
763020,28180,4764,-11280,32767,8228,-1021
763032,25064,3168,-9756,32767,-4518,-2675
763044,26872,2028,-9620,32767,-11459,-2425
763056,29248,3580,-12776,32767,-11906,1565
763068,31148,8064,-15164,32767,-11944,-457
763080,32767,9416,-13896,32767,-6253,511
763094,32767,9980,-10540,32767,3242,7538
763109,32767,7444,-9648,32002,5768,18161
763121,32767,7084,-9068,26384,5415,26448
763133,32767,8796,-7420,21214,2807,32659
763145,30992,11428,-6952,16430,-855,32767
763157,23568,14780,-8064,12937,-1587,32767
763169,19184,17748,-8612,11553,991,32767
763181,15872,19908,-9040,10926,4797,32767
763193,13556,20720,-8128,10294,8203,32767
763205,12024,20584,-7312,9388,10637,32767
763219,10936,19792,-6820,8036,12702,32767
763234,10680,20036,-6916,6622,14695,32767
763246,10984,20996,-7648,5372,16011,32767
763258,10988,22160,-9084,4250,15719,32767
763270,10976,22068,-11388,3026,15165,32767
763282,10412,22252,-14216,2274,15440,32767
763294,9440,23960,-16356,2213,15385,32767
763306,7404,24600,-17372,2047,14991,32767
763318,5724,25436,-18748,1899,13335,32767
763330,2956,27904,-19944,2393,9883,32767
763342,-1788,29388,-20040,3710,6283,32767
763358,-8772,26816,-17580,5415,4422,32767
763370,-10284,27256,-17624,6417,6459,32767
763381,-10856,30464,-16856,7362,8831,32767
763395,-13184,28500,-14372,7425,10203,32767
763407,-14240,24752,-12648,7168,11857,32767
763419,-13064,25008,-13816,7070,15052,32767
763431,-12032,27016,-15888,6886,18033,30919
763443,-13468,27284,-18352,6634,18979,29731
763455,-18392,25700,-19448,5238,18850,27763
763467,-22856,20704,-21888,4081,20083,25598
763483,-22580,11452,-22328,3900,19604,21800
763495,-22132,12272,-22492,4068,15971,16423
763507,-21640,16408,-23568,4224,14150,13441
763521,-25688,11104,-22620,4411,14351,10231
763533,-25060,10716,-21936,5060,12897,6958
763545,-24348,8144,-16376,4641,13194,2993
763557,-22644,6608,-14008,6122,19068,885
763569,-20468,432,-13980,5659,27894,-205
763581,-15848,192,-19068,5837,32467,-391
763593,-11800,-1792,-18716,5935,30914,-1085
763609,-4060,-548,-18760,4116,24379,410
763621,-824,-2216,-17192,3425,17774,-1070
763633,4304,-4276,-17636,3152,10887,-422
763645,-1128,-4016,-17036,3129,7711,-3403
763657,-4204,176,-14544,3568,10220,56
763669,-1500,336,-15016,4134,12946,-1862
763681,892,344,-13956,4369,14992,-3506
763695,2232,1160,-13352,4049,16255,-2951
763707,3700,28,-12932,3699,16912,-2693
763719,6120,224,-12312,2923,16631,-2147
763735,8400,-724,-11820,1818,13644,-866
763747,8488,-1376,-11340,566,9309,-925
763759,8152,-1072,-10736,-946,4270,-650
763771,7056,-1384,-11640,-2424,32,-1266
763783,6820,-1508,-12216,-3493,-2003,-1794
763795,6116,-2732,-12660,-4462,-3699,-2029
763807,5992,-2300,-13140,-5338,-5308,-2493
763819,4624,-2068,-14124,-6008,-5972,-3498
763831,3636,-260,-13480,-5959,-5537,-5121
763843,2788,980,-14252,-5561,-4355,-4570
763860,-1032,2348,-5728,-5142,-1472,-5720
763872,-7036,-4708,-7036,-4412,3356,-3574
763884,4848,988,-21400,-3880,7852,-7387
763896,5860,1824,-12784,-4446,5352,-7120
763908,5844,884,-14444,-4561,5681,-5748
763920,6828,1392,-13952,-5017,6315,-5250
763932,5860,1788,-13940,-5225,7845,-4973
763944,5376,748,-13648,-5456,9382,-3546
763956,6816,1336,-11880,-6711,11801,-1941
763968,8996,840,-10484,-7436,12441,-169
763985,11332,2996,-11400,-9841,10112,2709
763997,11576,4660,-8996,-11648,7274,3569
764009,11656,6608,-11640,-13125,5732,3795
764021,10596,8044,-7968,-14209,4850,4352
764033,10260,9524,-8544,-14704,5204,5005
764045,11104,10180,-9964,-15256,6746,5202
764057,12760,11280,-6060,-15942,7916,5325
764069,13700,11552,-8384,-16187,7423,5900
764081,13548,10836,-6628,-17165,6112,6534
764093,14040,10128,-5444,-18719,4915,6854
764109,12552,11060,-4580,-20288,2837,6020
764121,13428,11492,-6124,-21005,1305,5721
764133,12580,12740,-6136,-21506,1555,5852
764147,11460,12460,-6976,-22081,4254,6180
764159,11532,13464,-6800,-21412,7012,6118
764171,12048,15800,-6836,-20484,8961,5452
764183,10808,18148,-6652,-19769,10460,3783
764195,11716,19456,-8364,-19461,13953,1744
764207,12460,19968,-8776,-18010,17028,-1034
764219,13712,20188,-8908,-16636,18032,-2949
764235,13120,21576,-7712,-14803,19638,-7290
764247,12300,21384,-7896,-13629,22181,-10783
764259,11836,20496,-7292,-11782,25444,-14348
764273,16588,22384,-7832,-9268,26939,-18706
764285,17820,23896,-7924,-8519,30001,-22276
764297,20524,24780,-7200,-6275,27276,-21551
764309,21056,22316,-5260,-6643,26329,-26235
764321,22844,21472,-6840,-6567,26390,-29260
764333,21408,22964,-5176,-5789,25942,-28642
764345,21964,23268,-4048,-5441,27443,-29884
764361,27712,23720,-3852,-4026,24962,-29405
764373,24108,20556,-6188,-4042,25179,-30035
764385,24088,22924,-4868,-3438,26463,-30261
764397,22316,23960,-3420,-1180,27490,-30196
764409,21228,24388,-4716,1533,26151,-32219
764421,21364,24172,-5180,2885,26539,-32768
764435,17452,23680,-4192,5105,28231,-32768
764447,23848,25696,-4968,6616,30540,-32768
764459,22000,26800,-4628,9601,29847,-32768
764471,25640,29156,-3420,10260,26085,-32768
764487,25520,25000,-1312,10420,21383,-32768
764499,22388,23084,-1144,9844,16674,-32768
764511,20800,25392,-3308,10207,16555,-32768
764523,19356,27596,-3316,10732,17801,-32768
764535,17260,26336,-2632,11739,18187,-32314
764547,17860,23600,-4228,13313,20324,-31258
764561,15328,22448,-4048,14877,20633,-31640
764573,14620,22816,-2764,14791,20083,-31713
764585,15980,20612,-1984,15548,18914,-28936
764597,13396,20000,-2016,16303,19610,-29006
764613,15836,18416,-3176,18661,18182,-24907
764625,10476,17460,-3372,20642,15855,-23983
764637,8368,16392,-3648,21005,13735,-27763
764649,7316,17392,-3520,21456,13755,-26769
764661,4232,16244,-2988,22206,15768,-26003
764673,2700,14564,-2840,22621,19109,-24802
764685,1244,13004,-2928,23387,23274,-23500
764697,36,12796,-3232,24320,27840,-23039
764709,1640,12500,-3724,25238,29748,-21748
764723,2424,11536,-3820,25355,29081,-18505
764738,1620,10332,-3468,24236,25468,-17321
764750,124,9452,-5292,23672,23384,-17347
764762,-796,8692,-7512,23946,23026,-17732
764774,-1984,9088,-9780,24576,23365,-19465
764786,-1444,9108,-11924,25786,24963,-19458
764798,-848,8372,-11916,27400,27383,-18420
764810,-272,8264,-12148,29041,30049,-18272
764822,3516,8244,-11512,30388,32767,-17509
764834,9008,8184,-11012,31514,32767,-17950
764848,13744,7412,-10288,32767,32767,-17638
764863,15456,7176,-9968,32767,31619,-16519
764875,15856,5428,-8068,32372,28615,-13284
764887,19104,2224,-9356,30146,24787,-10283
764899,24940,-3092,-10752,27193,19780,-6513
764911,28832,-5776,-13336,24919,14854,-2404
764923,30328,-5220,-13620,22821,9243,1512
764935,31492,-3432,-13656,21189,4958,5890
764947,30284,-2068,-13024,19607,1843,9964
764959,28372,-2756,-10176,17234,-691,13585
764971,27916,-1304,-9204,15573,-1430,16666
764994,28532,3460,-8204,13859,741,23777
765006,27156,5448,-7704,12485,1364,27399
765018,25424,6336,-8768,10794,1866,30490
765030,23612,7012,-8400,9056,3352,32767
765042,21336,7476,-8636,7281,5788,32767
765054,19908,8576,-8608,5644,8411,32767
765066,18628,9848,-8856,3822,10506,32767
765078,17328,11764,-8492,1919,12134,32767
765090,15884,13908,-8452,-110,13260,32767
765102,14812,16200,-8604,-1793,14750,32767
765117,13380,18296,-8916,-3253,17582,32767
765129,12488,19352,-9356,-4525,20567,32767
765141,12276,20476,-10460,-5725,24057,32767
765155,13284,20468,-11792,-7254,28562,32767
765167,14652,19956,-12976,-8741,32046,32767
765179,17116,20208,-14488,-10198,32767,32767
765191,19884,21772,-16472,-11702,32441,32767
765203,20276,23340,-18532,-12677,27872,32767
765215,17436,22848,-18680,-13636,20929,32767
765227,13212,20840,-18812,-14085,13599,32767
765242,10368,20768,-19976,-13692,7008,32767
765254,9184,23080,-21324,-11937,3931,32767
765266,7252,24256,-22340,-9922,2617,32767
765278,3284,23896,-22124,-7452,2844,32767
765290,-124,22400,-22076,-5544,4775,32767
765301,-2668,19608,-21924,-4093,7607,32767
765315,-3192,16696,-21148,-2489,11836,32767
765327,-1520,15708,-20720,-1562,13711,32767
765339,1572,16652,-20912,-836,13866,32767
765351,3052,18452,-22360,-547,12105,31491
765366,564,19052,-22032,-631,7727,28822
765378,-2104,16284,-21088,-1184,5807,26401
765390,-2596,15124,-19724,-1365,5442,24932
765402,-2300,14408,-18668,-1971,4141,23808
765414,-1296,13752,-20148,-2012,2317,22528
765426,-1464,15060,-20372,-1269,668,21810
765440,-4584,16916,-20308,-663,217,20844
765452,-8048,14980,-20044,-229,1424,20422
765464,-10876,11184,-19144,670,3769,19285
765476,-11536,8468,-17192,1705,5052,18289
765491,-11508,6992,-15964,1642,5984,17081
765503,-11188,5752,-15864,1181,5344,16146
765515,-11952,4808,-15708,767,5563,13256
765527,-12724,4748,-14436,569,6953,10686
765539,-14252,3260,-12852,470,7525,9836
765551,-12604,2956,-12364,-507,7723,8000
765563,-13416,2668,-12936,-771,7707,7997
765575,-13880,608,-14468,-783,8255,4905
765587,-12372,1916,-15584,-469,8954,4187
765599,-12024,3028,-17096,196,10211,2253
765616,-8412,1204,-16468,771,13034,2478
765628,-5616,396,-17132,1723,14340,2404
765640,-2472,980,-16380,1547,11234,556
765652,11968,956,-16548,1568,8237,3302
765664,-1260,120,-14516,-278,4188,-450
765676,-1564,400,-14460,-249,4559,-932
765688,-1708,708,-15028,-5,6639,331
765700,128,164,-14048,-311,7578,-361
765712,2064,1176,-12588,-785,6839,-1621
765724,1884,548,-11760,-1849,5261,-2514
765741,3300,1196,-12192,-3278,2369,-2412
765753,2072,452,-12644,-4125,361,-3561
765765,2100,816,-12616,-4784,-507,-3641
765777,2352,-8,-12876,-5435,-1107,-3539
765789,3120,-1324,-13168,-6207,-1904,-3819
765801,3140,-1656,-13436,-6467,-2279,-3636
765813,2364,-1904,-13052,-6918,-2086,-3485
765825,1396,-2920,-13840,-7411,-1408,-3898
765837,2512,-1504,-12608,-7193,-847,-3420
765849,2124,-840,-15216,-7426,725,-3541
765864,384,9180,-196,-7238,3913,-4420
765876,652,-5788,-19820,-8506,6125,-3533
765888,3460,256,-11524,-9153,8101,-3306
765900,6188,-3892,-17644,-7766,8463,-5986
765914,5116,2296,-19528,-9262,8530,-4511
765926,4512,-164,-15552,-9475,5735,-3958
765938,4076,6436,-9496,-11728,6585,-3822
765950,4384,4100,-15864,-11601,8225,-3511
765961,4352,5296,-12840,-11646,8058,-4237
765973,6804,6908,-15668,-11750,8175,-4421
765988,9684,8448,-17192,-12191,7837,-3993
766000,9212,11060,-13364,-12640,6389,-2678
766012,10712,10352,-12944,-13165,5641,-1509
766024,10448,9828,-13320,-14132,3748,-220
766036,9404,7884,-13228,-14479,2442,577
766048,7980,6888,-12100,-14748,1591,620
766062,6280,8008,-10012,-15102,1838,1677
766074,7128,8892,-9004,-15760,3499,2829
766086,7372,10248,-9324,-15944,5158,3359
766098,8128,9516,-10772,-15936,7028,2981
766113,7996,11116,-10300,-16306,8268,2748
766125,8940,12424,-9760,-16264,9427,3077
766137,10868,12536,-10708,-16709,11311,3237
766149,12220,12576,-10392,-17523,13509,3673
766161,14152,12244,-10860,-17756,16056,3233
766173,15504,15400,-7916,-18339,17421,3653
766185,18564,14212,-10428,-18993,17501,3583
766197,19192,16076,-8276,-20322,16672,4627
766209,20948,16552,-9932,-21208,16012,5309
766223,20888,17072,-10264,-21708,15289,4744
766238,23136,19712,-10184,-21022,13560,5109
766250,22120,21940,-10076,-20958,11228,6257
766261,20460,23984,-10144,-20396,9908,5825
766273,16132,24404,-9380,-19118,9989,5772
766285,13392,22676,-9232,-17641,10478,5445
766297,9860,22868,-7624,-15937,12653,3074
766309,6636,24184,-5636,-13919,14461,1799
766321,4200,24352,-4492,-10718,17687,716
766333,3776,22648,-3456,-8778,19955,-4167
766347,6340,21120,-5708,-7515,20864,-8202
766362,8660,21308,-4620,-5452,17480,-12605
766374,8808,21316,-8332,-4782,16178,-14898
766386,7812,21556,-8168,-3695,18254,-19003
766398,9172,22492,-6256,-3087,21805,-23296
766410,10196,23716,-4636,-1789,23492,-27029
766422,12132,24072,-4308,-926,25572,-26835
766434,10628,22916,-3728,-1495,24739,-30628
766446,12196,25512,-4032,-1432,26467,-31616
766458,13820,26896,-1896,-1167,27778,-32768
766470,16936,26140,-1136,-1611,26479,-32768
766487,19404,29436,-2384,-1663,24877,-32768
766499,18324,26228,2600,-3323,23274,-32768
766511,16904,23396,272,-3956,23492,-32768
766523,18800,26884,-1712,-2709,24027,-32768
766535,21548,27868,1824,-3494,25305,-32768
766547,17872,23008,1084,-2049,24551,-32768
766559,19236,22124,2240,-2651,25138,-32768
766571,16936,22892,2248,-2315,23144,-32768
766583,17368,22920,304,-201,20901,-32768
766595,15492,21232,-688,353,20976,-30695
766610,14180,23284,-592,1834,21179,-26623
766622,10548,20492,112,2576,20845,-26677
766634,10132,20052,876,3386,20113,-26287
766646,7248,21744,-1372,4607,19639,-24030
766660,7040,24772,-3340,7510,22395,-24080
766672,4940,26640,-3284,8911,25047,-22841
766684,492,26484,-3100,10853,27981,-23826
766696,-328,27000,-4104,13056,30334,-24071
766708,-1580,28796,-4396,15441,32767,-22426
766720,-2492,28348,-3404,17438,32767,-22561
766735,-3932,24536,-4372,19105,32767,-23409
766747,-4824,21640,-2952,20024,32767,-23691
766759,-5840,20068,-2608,21432,32767,-23503
766773,-4280,19316,-4644,22809,32767,-21024
766785,-5148,19244,-5688,25576,32767,-21926
766797,-540,18796,-7872,27400,32767,-22351
766809,1596,17160,-8360,29719,32767,-20980
766821,5704,15780,-10164,31977,32767,-17806
766833,6112,14360,-9008,32767,32767,-14635
766845,11380,13312,-9688,32767,32767,-11054
766860,14452,9416,-8376,32767,28643,-6624
766872,14752,5740,-8648,32767,24314,-6270
766884,14820,4472,-8280,32767,19043,-5163
766896,11560,2036,-7892,32767,12859,-1981
766908,9388,1632,-8420,32767,9615,-1241
766920,11152,1676,-9820,32767,8839,-1587
766932,15204,968,-10540,32767,9316,813
766947,18004,-864,-13096,32767,8905,4401
766959,19820,-144,-13680,32767,8654,4660
766971,25548,328,-13952,31446,13046,7386
766993,28784,580,-12172,29465,19949,16852
767005,30264,196,-12192,26295,20045,22195
767017,32500,1772,-12436,23209,18121,26246
767029,32767,4708,-11560,19865,15146,30585
767041,30632,7224,-11488,17146,13990,32767
767053,28712,9300,-12316,14684,15333,32767
767065,27948,11592,-12580,12649,17202,32767
767077,26908,13956,-12328,10901,18389,32767
767089,25552,16560,-12044,9354,18733,32767
767103,23192,19452,-11260,7697,18583,32767
767120,19924,21376,-10012,6089,18977,32767
767132,18320,21844,-9248,4803,20005,32767
767144,17348,21784,-8528,3253,21753,32767
767156,17260,22052,-8672,1943,23651,32767
767168,16532,22440,-9060,410,25740,32767
767180,15632,23032,-9848,-1339,28537,32767
767192,15028,22868,-10284,-3503,31659,32767
767204,15520,22300,-10948,-6018,32767,32767
767216,17228,22944,-12828,-8459,32767,32767
767230,17928,26252,-17572,-10281,32151,32767
767245,14972,29844,-22756,-10727,24585,32767
767257,9324,29660,-24268,-10655,18133,32767
767269,3020,27044,-24208,-9912,13954,32767
767281,-2340,24780,-24296,-8231,12253,32767
767293,-5676,23904,-24536,-6058,12228,32767
767305,-6792,25544,-26108,-4317,13110,32767
767317,-7172,28660,-27656,-2904,13972,32767
767329,-8784,26896,-27000,-2291,13476,32767
767341,-10288,23000,-26064,-1763,12837,30582
767353,-10556,21268,-24672,-1450,12124,27615
767370,-13780,20880,-24260,-1398,11392,24552
767382,-17772,18204,-22612,-843,12856,21517
767394,-19616,15524,-21480,-141,16873,18249
767406,-19340,12960,-20908,623,22090,16746
767418,-18316,10100,-19944,1293,26339,14654
767430,-15572,7192,-18120,880,28424,12444
767442,-12844,3576,-17012,-39,28199,11731
767454,-11608,1288,-16116,-864,26429,10150
767466,-10472,1928,-15388,-1300,23797,7954
767478,-9660,4428,-15780,-2003,23561,6303
767493,-8432,1336,-17864,-2641,23867,4994
767505,-6472,-308,-20200,-2732,21444,4459
767517,-11112,4404,-22012,-820,20828,3256
767531,-7560,3484,-24004,1137,23144,-2245
767543,6036,2204,-29212,5505,31564,-1665
767555,15160,-6920,-16116,3629,26319,1342
767567,11648,-4392,-19756,2565,11921,-684
767579,7028,-3352,-17700,209,7412,-9135
767591,1536,-4744,-16260,889,9572,-565
767603,-112,-5520,-14308,1608,14428,143
767618,5916,-5228,-12580,1585,17165,-3269
767630,7412,-4468,-11608,1126,14141,-4441
767641,9328,-4452,-9024,-75,9776,-5740
767653,10716,-5544,-8772,-2234,2730,-7465
767667,13288,-5712,-12304,-4380,-5611,-8579
767679,12472,-3748,-14308,-5109,-10683,-7707
767691,10616,-1940,-13912,-6378,-14796,-6246
767703,9996,-452,-14108,-6880,-18321,-5729
767715,7176,1332,-13828,-8255,-22032,-4861
767727,5668,836,-12372,-9236,-24803,-6107
767742,1072,3852,-14100,-8850,-24143,-6427
767754,-128,1784,-13880,-7875,-19869,-6797
767766,-3028,-1720,-11408,-6442,-15143,-7518
767778,-9340,9392,-22804,-8099,-10312,-8158
767790,2848,9840,-18688,-4477,-1349,-10743
767802,1240,7344,-10664,-5005,-937,-11994
767816,4012,1956,-17972,-4082,-833,-11217
767828,-752,24,-18028,-3935,-7,-11401
767840,3472,3160,-15736,-3620,-2126,-12030
767852,3264,3088,-12704,-4507,-4493,-11553
767867,4312,3180,-14092,-5215,-7137,-10974
767879,3864,3912,-12456,-5868,-9744,-10309
767891,2800,4672,-11796,-7322,-10891,-9669
767903,2144,2700,-11488,-8374,-10899,-8788
767915,360,4684,-13648,-8985,-8882,-8249
767927,-1248,6104,-11964,-9445,-6687,-8208
767939,708,6348,-10728,-9979,-5202,-9090
767951,920,6508,-10432,-10989,-3943,-8824
767963,4312,7036,-11432,-11466,-2278,-9403
767977,5480,5568,-11888,-12057,-1564,-9504
767992,4116,6504,-10416,-12542,-1228,-9986
768004,3672,7636,-9864,-13364,-334,-9081
768016,5580,7360,-8936,-14265,1295,-9619
768028,7692,9372,-8728,-15620,2798,-9255
768040,10528,8784,-8548,-16546,3518,-8025
768052,13172,9224,-8916,-17477,4312,-7245
768064,13920,11064,-8828,-18084,4609,-6015
768076,14616,11008,-8624,-19276,4549,-4404
768088,13356,10500,-8576,-19399,4889,-3814
768102,13680,11948,-9424,-20048,7114,-1091
768117,14128,12408,-6768,-21016,10135,523
768129,15596,12180,-6292,-21976,13346,2558
768141,16372,13676,-5364,-21958,16954,4407
768153,16996,13556,-4924,-22885,21849,7463
768165,17884,13868,-4956,-23029,25659,7656
768177,19352,15416,-4932,-24227,27458,7164
768189,19748,18276,-5368,-25905,26617,6918
768201,21100,21744,-6492,-26694,25482,8313
768213,19692,24224,-7580,-27332,24300,8868
768225,18312,26184,-7540,-27478,26557,9180
768242,19504,25668,-7568,-28019,28443,11686
768254,19324,25572,-7948,-27948,27191,11471
768266,18452,27300,-7664,-28811,23320,9738
768278,19784,27580,-5500,-29722,20496,10273
768290,18256,31024,-4384,-30104,15518,10640
768301,18396,29920,-4480,-30687,15022,11880
768313,15960,29220,-4000,-29915,14090,11440
768325,13924,30100,-3772,-30159,9169,9564
768337,14660,31004,-6456,-29967,6961,11702
768349,11280,29472,-7404,-28800,5624,12468
768364,7828,27832,-6000,-26732,557,9493
768376,8440,29564,-6608,-25146,-3273,8811
768388,3184,28228,-7288,-23965,-7536,10590
768402,-108,23844,-5816,-22844,-11918,5347
768414,176,23400,-4688,-21938,-12387,2612
768426,-624,24184,-5256,-19806,-10648,1310
768438,-3092,24072,-4764,-17148,-10319,-2097
768450,-2520,22184,-6380,-14437,-10708,-6524
768462,-3916,19092,-6796,-12309,-6407,-10840
768474,-160,19788,-5052,-9432,-5698,-16475
768489,1084,21188,-6928,-7057,-1927,-18380
768501,2356,22544,-6496,-4930,1827,-21427
768513,4132,21496,-2768,-4198,8440,-25555
768525,5600,21144,-680,-2587,15593,-28032
768537,7588,23036,3108,-1567,21125,-31341
768549,13112,21492,3336,226,21725,-31602
768563,13296,22648,6936,480,19775,-31679
768575,13824,23460,8820,-11,15984,-31444
768587,11372,23764,4388,1523,14925,-32746
768599,13732,25688,7896,1275,18073,-32768
768614,16740,23616,8960,1794,19485,-29113
768626,15328,22852,12144,1365,21080,-29668
768638,14552,21736,12680,948,20225,-29486
768650,16372,20736,9472,1666,21372,-27175
768662,14872,20952,11764,1287,22439,-24666
768674,15900,20480,13448,728,22021,-23087
768688,11680,20780,10448,2065,22301,-21490
768700,11520,20456,10612,2459,24236,-20859
768712,10480,18624,10852,2790,23030,-20141
768724,9736,19300,8996,4136,24484,-17592
768739,6644,18604,9124,4851,28691,-16856
768751,4980,18968,9632,5359,31372,-16697
768763,4488,19744,8508,6573,32767,-14126
768775,3484,19528,8552,7554,32767,-12234
768787,3120,19392,7924,7956,32767,-11482
768799,2008,20060,6684,8927,32767,-9747
768811,-752,19332,6048,9468,32767,-8780
768823,-2384,18712,5580,10270,32767,-9336
768835,-2084,18064,4912,10778,32767,-10086
768847,-2184,18396,4176,11323,32767,-9811
768864,-2148,18684,2204,12496,32767,-9628
768876,-2412,17924,1320,13311,32767,-9947
768888,-2904,17460,488,14406,32767,-10761
768900,-2708,16428,-496,15631,32767,-11518
768912,-2204,15600,-1240,16779,32767,-11474
768924,-2360,16028,-1772,18078,32767,-11055
768936,-2728,17656,-2468,19272,32767,-11528
768948,-3188,19292,-3312,20422,31611,-11605
768960,-4056,20508,-4624,21375,30169,-11899
768974,-5020,21008,-5584,22444,29226,-12762
768989,-5704,20188,-7064,23597,29042,-13240
769001,-5780,19052,-7588,24240,30458,-13684
769013,-4092,17544,-8648,24665,31790,-13462
769025,-2356,16008,-10120,25549,32317,-12004
769037,40,14076,-10804,26598,32112,-10315
769049,1956,13008,-12204,27818,30328,-8406
769061,3480,12564,-13156,29059,28168,-6892
769073,3880,12700,-14432,29914,25482,-5430
769085,4360,13944,-15584,30734,23462,-4595
769097,4808,13580,-16596,31241,21604,-3315
769112,5756,12040,-16368,31561,19192,-2457
769124,7696,10156,-17032,31938,17581,-1235
769136,8872,8372,-15816,32399,16782,31
769150,9904,7692,-15048,32031,18353,2212
769162,11788,7128,-14032,32229,19801,2830
769174,15988,6020,-12244,32052,22058,3418
769186,22816,3772,-9956,31814,22870,5143
769198,30388,408,-7228,30594,20167,8431
769210,31864,-2828,-5644,28814,16696,11287
769222,32767,-2628,-4740,26685,10739,13460
769237,32767,-1800,-4380,23094,-1157,15247
769249,32767,-1400,-5084,19855,-5210,20598
769261,32767,-512,-8028,17898,-5475,23098
769275,32767,4792,-8288,16128,-7703,27407
769287,32767,5580,-7784,13124,-8663,30305
769299,32767,7392,-9592,10860,-4276,32767
769311,31584,10812,-14372,9961,1504,32767
769323,28912,15256,-16792,10380,6711,32767
769335,26600,18704,-16988,10351,11713,32767
769347,24596,19804,-15168,9697,14864,32767
769362,23428,20228,-13228,8479,16116,32767
769374,21864,21092,-11248,7163,15547,32767
769386,19464,21500,-9492,5439,13782,32767
769398,16580,22000,-8056,3872,12414,32767
769410,13824,22388,-7524,2560,12367,32767
769422,12100,23100,-7736,1467,13948,32767
769436,11600,24292,-8352,292,17039,32767
769448,11912,25448,-8556,-580,20013,32767
769460,13436,26984,-10008,-1198,22967,32767
769472,14336,28984,-10860,-2528,23461,32767
769487,14048,31616,-15200,-4277,20455,32767
769499,13136,32767,-18608,-4573,16006,32767
769511,9316,32767,-21628,-4205,10122,32767
769523,1780,32767,-22500,-3313,4143,32767
769535,-5204,31684,-21920,-2373,720,32767
769547,-9684,28236,-20228,-1098,-822,32767
769561,-12972,30340,-21436,1041,-1203,32767
769573,-18672,32767,-22484,3150,-1110,32767
769585,-26144,30736,-20360,4929,1328,32767
769597,-30304,24460,-17268,6682,8436,31780
769612,-27464,17776,-17208,8448,19057,26940
769624,-21572,17836,-17492,8501,21557,23885
769636,-18468,18568,-17388,6425,19526,21223
769648,-17712,15624,-16504,4057,15813,19720
769660,-18360,11012,-15032,2160,12482,17644
769672,-20828,8192,-13616,801,9427,14994
769684,-22664,8396,-12716,107,8294,11851
769696,-23216,7856,-12072,-915,8027,10408
769708,-23940,4740,-10288,-1168,8303,7806
769722,-22864,3028,-10184,-1609,10147,3947
769737,-19880,4736,-10556,-1763,14848,3312
769749,-16672,1552,-12644,-2591,16279,1271
769761,-15564,5656,-16060,-1720,16896,520
769773,-7928,8608,-14448,-1934,12042,-2454
769785,-9496,5132,-17508,-36,14992,-3133
769797,-7164,3936,-14376,-190,17699,-2187
769809,-4520,-1116,-14540,455,19597,-649
769821,1508,44,-17060,-458,17241,-2300
769833,6180,3788,-17256,-1633,13350,-1637
769845,7396,1280,-15844,-3687,6672,-1544
769862,4060,-528,-13492,-5366,2143,3298
769874,412,-116,-12792,-6115,3249,3424
769886,692,1460,-14816,-6391,3363,3492
769898,1600,1984,-13288,-7114,2358,3461
769910,-380,3028,-13688,-7593,682,2396
769921,-2292,3292,-13124,-7572,-468,1476
769933,-2868,2584,-13732,-7392,-230,555
769945,-2984,-80,-14960,-7034,1624,-1121
769957,-1484,-1108,-14940,-6317,3811,-2530
769969,-540,-720,-14744,-6454,5111,-2432
769984,1800,3700,-12484,-7179,6885,-2157
769996,3768,7892,-18312,-7930,6419,-272
770008,-6672,432,-16876,-8048,5759,-235
770020,2768,-3272,-12508,-7945,9173,-2860
770034,11784,-27924,14488,-5764,7070,-3912
770046,4380,12488,-18700,-12494,7670,486
770058,-896,18792,-13840,-9158,12946,344
770070,4448,9236,-12592,-9759,16435,-135
770082,4400,10440,-10624,-10202,20111,2545
770094,9892,9700,-10708,-9982,22607,3864
770109,5376,21348,7912,-10833,20731,4720
770121,15160,8452,-11036,-11565,19531,5793
770133,13940,8888,-8240,-12825,17167,7603
770145,15740,7180,-10884,-13560,17439,8497
770157,13896,9684,-5264,-14378,17512,10363
770169,14980,10336,-5308,-14779,19474,12404
770183,17388,10780,-6576,-15685,22199,14221
770195,18900,11500,-6712,-15758,22873,15092
770207,20460,11728,-7844,-15974,22446,15537
770219,21876,11500,-8256,-16303,21986,15497
770234,22764,11384,-9924,-17189,21244,14251
770246,21452,13492,-7816,-16655,20442,13679
770258,19476,13612,-11380,-16015,21322,13001
770270,16592,16820,-6496,-16778,21902,12057
770281,17060,19232,-6440,-16288,23451,10809
770293,18084,22300,-6584,-15889,25365,9679
770307,17156,23316,-3800,-16713,27213,7503
770319,16908,23228,-3104,-16244,26831,6417
770331,19948,23740,-5628,-15733,26506,3835
770343,15144,26736,-4028,-15592,24349,-690
770358,14580,25908,-6324,-14893,25307,-2629
770370,18856,27692,-7276,-14273,26090,-6480
770382,14456,26316,-8040,-12498,26018,-11613
770394,16904,28460,-8536,-10285,23420,-13761
770406,12224,27924,-9648,-9227,24849,-16109
770418,13104,28384,-7840,-5419,22336,-20016
770430,17992,30320,-10152,-1147,19536,-22309
770442,13060,24928,-5564,1299,17555,-23315
770454,12840,24468,-6688,1548,21930,-26629
770468,15488,24008,484,4106,26581,-32768
770483,24164,24000,-3868,9004,26932,-32768
770495,22456,22484,-844,9399,24119,-32768
770507,17324,22308,-4508,10851,26533,-32768
770519,22812,24640,1380,11158,27468,-32768
770531,30576,26040,4240,10890,29484,-32768
770543,32767,26212,11328,9400,29321,-32768
770555,29708,28936,2900,12443,26303,-32768
770567,30144,27156,6120,11535,26720,-32768
770579,28804,27604,8616,11244,26565,-32768
770593,29988,26492,4956,11816,26017,-32768
770608,30484,26512,6104,12238,23515,-32768
770620,23728,24660,-1504,14571,19753,-32768
770632,18664,27076,-4852,16487,20684,-32768
770644,15684,24972,-1116,16133,23638,-32768
770656,13308,24296,340,16755,24498,-32768
770668,13180,25040,-1308,18027,26535,-32768
770680,11456,24528,-136,19477,31761,-32768
770692,10792,25060,-936,20665,32767,-31647
770704,9196,25436,-2384,23854,32767,-31527
770716,8608,23800,-2892,26062,32213,-29265
770733,6392,20164,-2248,27167,30387,-31296
770745,6392,19892,-1956,27489,32539,-28303
770757,5720,19096,-2032,28738,32767,-25890
770769,5400,17028,-4156,29515,32767,-23028
770781,4900,15744,-6432,31075,30789,-22299
770793,5340,14428,-6964,32339,29483,-20754
770805,5108,13712,-9380,32767,30561,-18490
770817,6144,12928,-10160,32767,30507,-15929
770829,6500,11572,-12604,32767,28812,-15740
770841,7864,13748,-13520,32767,28921,-16222
770856,13640,14232,-12300,32767,26860,-12518
770868,19640,15048,-15636,32767,20912,-7309
770880,17272,12204,-13788,32767,12571,-1817
770894,18632,6216,-13360,32767,4849,-2396
770906,21392,3712,-14944,32767,2343,-1009
770918,22176,5424,-18000,32767,235,1668
770930,22064,6712,-18496,32767,439,4949
770942,22716,7200,-15632,32767,5071,7287
770954,25336,7632,-14728,32767,11845,12592
770966,28248,7600,-13436,32767,16453,19657
770981,30480,9308,-12296,32767,15714,25790
770993,30716,11760,-11468,32004,13510,30655
771005,27536,14372,-10320,29284,12203,32767
771019,23360,17416,-9168,26261,14128,32767
771031,19928,19844,-8864,23912,17573,32767
771043,16532,21052,-7668,21780,21961,32767
771055,14572,21572,-6672,19357,26926,32767
771067,12724,21764,-5344,16850,31541,32767
771079,12308,22012,-4412,13898,32767,32767
771091,13240,21552,-4320,10552,32767,32767
771106,14448,20944,-3872,5550,32767,32767
771118,16376,20304,-4040,494,32767,32767
771130,19760,20656,-5968,-4567,32767,32767
771142,23832,23712,-10372,-9131,32767,32767
771154,25828,28504,-16648,-13046,32767,32767
771166,25388,32767,-23744,-14873,27062,32767
771180,18856,32767,-27584,-14946,13656,32767
771192,9124,32096,-27444,-14029,1434,32767
771204,212,30116,-26700,-12666,-7457,32767
771216,-7180,30128,-26016,-9723,-11729,32767
771231,-16448,32400,-25300,-5382,-12130,32767
771243,-21708,32767,-25764,-2175,-9559,32767
771255,-25940,32767,-23552,1244,-5306,32767
771267,-27580,25520,-19256,3776,58,32360
771279,-25028,20944,-16416,4875,3988,28730
771291,-21580,22764,-15680,5072,4567,24828
771303,-21180,26680,-14904,4150,3599,22077
771315,-25680,25952,-12040,3086,3251,21118
771327,-32356,21564,-8920,2306,5318,18882
771341,-32768,16560,-9372,1453,10892,17234
771356,-32768,6332,-10632,881,15617,14785
771368,-28452,5584,-10684,1333,13739,8578
771380,-28096,8036,-9776,934,10974,5857
771392,-28928,10444,-11852,1498,13452,2139
771404,-25896,9292,-11084,290,12415,-394
771416,-22916,4456,-13068,1583,16526,-3148
771428,-15744,4032,-14472,1390,18687,-4251
771440,-12380,-360,-12464,1194,21765,-3932
771452,-8892,1332,-13392,1353,22578,-2785
771466,964,2996,-14740,-307,18427,-5344
771481,9444,2704,-15392,-1804,7864,2294
771493,2864,352,-14212,-4717,1710,170
771505,-304,260,-13504,-5843,226,2681
771517,-2552,708,-13576,-5699,2217,3917
771529,600,1204,-13320,-5986,4111,3844
771541,-1276,1908,-12396,-5993,4511,3401
771553,-3040,1872,-11604,-6792,4350,1439
771565,-2580,2856,-12940,-6616,5986,-848
771577,-888,4108,-13356,-6653,7362,-387
771589,-1492,4240,-14204,-6836,8353,-632
771605,-1208,3388,-14496,-6869,8935,-1825
771617,144,3828,-14704,-6809,10212,-2989
771629,2036,5092,-15692,-6998,10676,-3614
771643,6684,6220,-17204,-7404,11222,-2448
771655,4700,5292,-15680,-8099,10196,-1476
771667,6008,6336,-13980,-8209,9115,-154
771679,-836,5476,-14768,-8493,9734,-782
771691,-1352,6992,-10956,-7884,15472,-1379
771703,-2076,10180,-18212,-8352,21334,-1101
771715,8768,7964,-14200,-7387,18612,-2710
771731,9120,10696,-17116,-9405,13892,-307
771743,976,6852,-12372,-9124,11868,-617
771755,5832,2432,-18136,-9544,12608,-1625
771767,5264,8564,-11332,-11723,15782,-967
771781,9768,2392,-10844,-11968,18573,-2566
771793,10928,11028,-7272,-12433,17096,-3560
771805,12324,10808,-6952,-13515,16950,-2294
771817,13352,11288,-8412,-15044,17716,-1772
771829,13896,11716,-6288,-16530,16952,-2948
771841,16208,13444,-6940,-18612,15575,-2043
771856,15348,15968,-2764,-20905,12602,-2282
771868,12624,14444,-2596,-22160,11558,-3549
771880,15296,16308,-3408,-23114,12274,-4005
771892,15400,18428,-2512,-23137,14442,-5375
771904,15468,18240,604,-22571,13795,-6598
771916,17112,20120,-8,-22655,12393,-7168
771930,18016,23468,-3304,-21606,11417,-7552
771942,15756,27528,-3212,-20225,10904,-8155
771954,13672,29384,-4464,-18598,13666,-7489
771966,10724,27664,-2820,-16347,15942,-10592
771981,7084,28744,-1828,-15146,20181,-13579
771993,4164,31668,-4560,-14037,21645,-15691
772005,3636,32767,-4804,-13100,22695,-16984
772017,2584,32767,-10324,-13489,26153,-19264
772029,-2224,32424,-9524,-12328,29555,-27609
772041,3196,32767,-11836,-11812,30997,-32768
772055,12376,32767,-12836,-9960,28002,-32768
772067,10732,32767,-11724,-10002,28718,-32768
772079,13992,32767,-9676,-9273,29670,-32768
772091,24728,32767,-7364,-8521,23808,-32768
772106,19200,32767,-2024,-9901,23905,-32768
772118,27232,32767,-6984,-7215,19630,-32768
772130,17668,29988,-2464,-6247,25317,-32768
772141,24328,32767,4092,-6186,23819,-32768
772153,27104,32767,-496,-2241,19793,-32768
772165,25964,26244,4552,-2396,18687,-32768
772177,25848,24336,2092,-1639,18888,-32768
772189,22272,27692,-1056,-944,19450,-27678
772201,17748,20868,-1084,294,24882,-29057
772215,16176,19644,-1860,2521,27246,-27201
772230,19004,26600,-3676,6517,23849,-22064
772242,14912,25152,-8428,7734,26336,-23163
772254,12408,20184,-7148,8035,26880,-26363
772266,14892,24172,-6464,9905,21640,-23716
772278,11996,25936,-7864,10779,19193,-21606
772290,9192,26904,-7848,12459,16537,-20143
772302,3564,21712,-7616,14560,16573,-20307
772314,2444,19864,-7876,17172,18596,-24609
772326,1476,22580,-8232,17757,21828,-23368
772340,2184,21236,-7952,19353,23101,-20325
772355,-436,16288,-8688,20957,21581,-18464
772367,-3408,14428,-8080,21797,21272,-18097
772379,-8496,12452,-8348,24157,24343,-18519
772391,-8220,12516,-7004,26026,29060,-17809
772403,-6536,10840,-3592,25839,32185,-19460
772415,-6468,11880,-1240,24595,32278,-17046
772427,-3876,11972,-108,23350,32767,-14844
772439,-4380,10388,-1664,22893,32767,-12308
772451,-4620,9924,-3284,22614,32767,-13197
772463,-1940,11980,-6136,23191,32767,-11702
772480,-2220,11552,-5624,21833,32767,-14573
772492,88,11076,-7308,22539,32767,-14740
772504,3076,12552,-7832,23413,32767,-11475
772516,4500,12956,-8232,24718,30701,-11180
772528,7164,11280,-9784,24926,27275,-10697
772540,8428,7644,-8632,24976,25893,-9445
772552,9984,5288,-7776,24712,25058,-7706
772564,12208,3256,-8432,24747,24882,-8683
772576,14932,1088,-6992,24869,23040,-9227
772588,17564,-664,-8116,24635,20224,-9091
772603,21324,-1448,-9704,24014,16975,-8462
772615,24648,-1024,-10260,23245,12939,-7447
772627,26572,-2052,-10524,21789,7892,-4593
772641,28616,-2448,-11632,20466,2629,-2333
772653,28544,-2384,-10960,19966,1741,-663
772665,28324,-2660,-11100,18545,1847,2395
772677,29868,-3484,-10368,17405,3010,5550
772689,31092,-4212,-9668,16232,3794,10502
772701,31172,-4612,-8968,14032,3125,15517
772713,30648,-3168,-8828,11848,1401,19817
772728,28032,-244,-9104,9510,-906,25330
772740,24020,2264,-10080,8455,-1017,28490
772752,19992,4336,-10376,8262,1883,30826
772764,17864,4592,-10668,7886,6450,32767
772776,17384,4188,-10656,6988,9895,32767
772788,18172,4776,-10868,5851,12071,32767
772800,18284,6296,-10928,4524,12641,32767
772814,17484,8892,-11044,2867,11920,32767
772826,16712,11492,-11224,1504,10925,32767
772838,15600,13532,-11404,454,10408,32767
772854,13340,14716,-11436,-728,10539,32767
772866,11608,14188,-11228,-1960,11468,32767
772878,10660,14240,-12580,-2973,12850,32767
772890,11492,15760,-13912,-3715,14279,32767
772902,12064,17452,-14644,-4316,15540,32767
772914,11696,18092,-14488,-4875,15853,32767
772928,11304,17176,-14696,-5634,15358,32767
772940,10832,17568,-15340,-5829,14501,32767
772952,10352,18812,-15408,-5935,12779,32767
772964,9260,20504,-15924,-5726,10429,32767
772979,6860,21468,-15344,-4964,7586,32767
772991,5428,21372,-15748,-4505,6733,32767
773003,4536,22012,-16636,-4043,6403,32767
773015,3260,22748,-17192,-3542,5799,32767
773027,1312,22448,-17972,-3097,5271,32767
773039,-1344,21176,-18232,-2588,5054,32767
773051,-3120,20204,-19620,-1781,5658,32767
773063,-3060,20444,-20636,-754,6490,32767
773075,-4200,20468,-20636,265,6045,32767
773089,-6728,18716,-20392,1476,4441,32767
773104,-8404,17080,-20672,2621,4275,32767
773116,-9672,16528,-20528,3366,4758,32258
773128,-9820,15996,-20148,3857,5222,29658
773140,-9608,16104,-20476,3929,5002,27174
773153,-10556,17564,-20380,4126,4772,25202
773165,-12904,16468,-19888,4268,4820,23341
773177,-14212,13816,-18652,4855,6343,21499
773189,-14176,11224,-17364,5109,7663,19836
773201,-13036,9736,-17204,5141,7820,18355
773215,-12164,9288,-18076,4680,7480,16092
773230,-11556,9276,-18436,4265,7145,14904
773242,-11560,7716,-16640,4395,6720,13783
773254,-12388,6000,-14204,4297,6038,12129
773266,-14024,5428,-12372,4158,6034,9867
773278,-13316,4120,-11384,3890,6914,8897
773290,-13684,2816,-9780,4188,10008,7428
773302,-14384,1276,-8400,3379,11795,6918
773314,-13356,-104,-8240,2767,12999,5610
773326,-10416,2000,-8588,2095,13377,4680
773338,-8344,1232,-10032,1094,12907,4127
773354,-8580,1852,-11388,810,14713,3404
773366,-9444,264,-12864,626,14011,2866
773378,-8332,-1200,-12852,190,15679,3396
773390,-7564,-1696,-13944,358,16356,3138
773404,-6920,-1256,-14256,286,15646,1847
773416,-3904,488,-14192,70,15299,335
773428,1484,1720,-14812,-225,13917,21
773440,2696,1732,-14756,-1416,9510,165
773452,8,980,-12544,-2072,9201,-1919
773464,404,1340,-12476,-2441,11867,-399
773480,2304,1516,-12736,-2947,15924,-124
773492,6824,1980,-15200,-2989,17135,334
773504,6108,3124,-12592,-3785,15057,145
773516,5868,952,-16012,-5106,12804,-205
773530,7012,-1004,-14196,-6249,10118,965
773542,6884,-2176,-14480,-7119,7330,959
773554,5308,-1484,-14344,-7136,4939,541
773566,5956,-592,-16116,-7449,3896,469
773578,2288,1944,-18120,-8213,1144,-373
773590,156,1080,-11560,-10546,-224,-493
773606,26744,-26256,13092,-7824,4938,-5080
773618,9264,8552,-17604,-11415,282,-3782
773630,-1184,9572,-10116,-8708,3648,-2084
773642,1308,7536,-15080,-7994,6006,-2590
773654,5192,3180,-12940,-8449,8407,-2405
773666,2636,692,-12832,-8997,9894,-1710
773678,2104,1760,-12444,-9770,11561,-1040
773692,2208,4084,-9112,-10513,11650,-1957
773704,7044,5136,-11932,-11500,10583,-1151
773716,6332,8860,-10128,-13142,11065,1137
773732,6992,11780,-9904,-14129,12367,3785
773744,7452,11884,-10644,-15104,13247,5061
773756,7956,11940,-10248,-16289,15371,5440
773768,11340,12848,-8168,-17383,17320,6020
773780,12332,14756,-8400,-18181,17675,7089
773792,15708,15240,-7740,-18988,17316,8227
773804,16848,14420,-6576,-20790,15428,8995
773816,16676,12580,-5980,-21940,12842,8960
773828,18060,11976,-5556,-22484,12937,9634
773842,21004,11264,-5504,-22337,16228,12249
773857,22804,11252,-5720,-20974,19054,14092
773869,24320,11860,-4080,-20300,20251,15194
773881,26320,11648,-2192,-19870,20751,14828
773893,28452,10608,-1800,-19440,21253,15041
773905,29420,11208,-1192,-19103,21822,15577
773917,28008,9960,-4812,-18649,22445,15453
773929,25456,10624,-3456,-18424,24142,12978
773941,22608,12440,-2464,-18323,25531,13358
773953,23380,16076,-2836,-17547,29517,14934
773965,21700,16556,-3180,-17167,32400,12878
773982,20040,16452,-640,-16598,32767,9864
773994,18372,15628,192,-16670,32767,7369
774006,25404,16048,-1760,-15194,32767,5659
774018,21360,19276,-304,-16087,31480,1364
774030,22836,21368,-2528,-16745,26960,-1548
774042,22764,18460,-4096,-17170,25135,-1988
774054,19364,20384,-4088,-16609,17822,-4818
774066,12996,19308,-4604,-18502,15427,-10122
774078,10264,21632,-6492,-16472,13825,-12273
774090,6616,26032,-7444,-14305,12704,-15602
774106,740,23016,-6104,-11297,14063,-22110
774118,3680,28648,-6992,-7240,16133,-27027
774130,3484,30916,-7668,-3494,20092,-29828
774144,8512,30808,-5392,751,22170,-32768
774156,15640,30672,-1460,1038,23994,-32768
774168,14928,32767,-3656,1622,23844,-32768
774180,14480,32076,892,645,26771,-32768
774192,18520,32767,5008,548,28327,-32768
774204,24956,32767,2980,1205,27267,-32768
774216,26412,32767,7176,1457,25756,-32768
774232,22868,30852,7824,3661,25010,-32768
774244,20996,32767,9200,6030,28522,-32768
774256,17860,29324,11228,8541,31341,-32768
774270,20020,27092,14740,10331,32767,-32768
774282,19232,30108,12716,12287,32767,-32768
774294,18236,28600,15736,11742,32767,-31874
774306,19508,27792,15700,12590,32767,-27297
774318,17800,28700,11884,14608,32767,-21569
774330,11920,29784,11368,15164,32767,-20759
774342,9232,29952,7032,16638,32767,-19072
774358,2976,30424,3292,21583,32767,-13937
774370,-2916,27636,2796,25893,32767,-16670
774382,-5932,26240,2960,29333,32767,-19301
774394,-6424,27152,616,32767,32767,-21889
774406,-2620,30184,4156,32767,32767,-20401
774418,196,28816,4140,32767,32767,-14699
774432,744,23816,3588,32767,32767,-11548
774444,4124,21316,-2908,32767,32767,-8257
774456,1736,19388,-1416,32767,32767,-321
774468,-2232,18904,-2592,32767,32767,-863
774484,-224,16504,-1752,32767,32767,-1598
774496,2224,13552,-1920,32767,32767,-3239
774508,8808,9304,-1636,32767,32767,-1418
774520,13092,6300,-1292,32767,32767,2239
774532,19988,2964,-3132,32767,27996,4229
774544,26064,2792,-1920,32767,16889,7411
774556,28412,6500,-2472,32767,1756,11520
774570,24352,8852,-2036,32767,-8972,13389
774582,27576,7756,-5508,32767,-11835,13693
774594,29224,8460,-9548,32767,-13342,15526
774610,31120,11768,-12156,31526,-13171,18184
774622,28976,13520,-12848,31110,-7535,19161
774634,27640,14896,-14520,29894,-2862,22774
774646,29616,14316,-14692,28711,2346,26107
774658,30772,14080,-11812,27524,4916,28025
774670,29204,14956,-11468,25966,5754,32679
774682,28196,17056,-9592,24057,7784,32767
774694,26260,17848,-7876,21862,8855,32767
774706,24568,18860,-7604,19593,10905,32767
774720,21220,20768,-7940,17646,12773,32767
774735,16708,23608,-8200,15890,15728,32767
774747,13028,24984,-8412,14127,18911,32767
774759,10696,24800,-8112,12113,21835,32767
774771,10316,24092,-6020,9424,24082,32767
774783,11328,24484,-5768,6532,26004,32767
774795,12764,24356,-6760,3623,28465,32767
774807,14240,25592,-7460,1138,30424,32767
774819,15912,28088,-11832,-373,31089,32767
774831,16228,30352,-16144,-2095,30730,32767
774843,16592,32767,-19600,-2787,27964,32767
774860,12668,32767,-22868,-2335,22101,32767
774872,6016,32767,-22756,-1892,18793,32767
774884,-1484,32767,-21968,-2267,17075,32767
774896,-6132,30160,-21996,-2283,17378,32767
774908,-8044,30352,-23432,-1253,19566,32767
774920,-9004,31596,-25064,-413,22148,32767
774932,-10796,30616,-26732,112,24992,32142
774944,-14508,27880,-26236,406,27491,28929
774956,-15680,23476,-25232,414,31157,25110
774968,-15172,19476,-25712,-155,32767,22846
774984,-13096,17100,-28408,-1138,32767,20183
774996,-15236,17040,-29576,-1772,32250,18008
775008,-13708,9268,-31956,-3264,29846,16234
775022,-16136,6248,-32720,-799,24151,15564
775034,-21612,7512,-27828,1060,15941,11576
775046,-23952,7672,-19140,2567,16461,881
775058,-21088,5308,-17712,2000,16580,703
775070,-16196,1864,-20952,3541,22507,-108
775082,-10708,-1624,-20364,3886,28164,-3137
775094,16408,-700,-19728,5097,26841,-1568
775110,-2672,-1104,-16572,3173,14191,-3798
775122,-112,-3488,-14596,2352,15282,-4020
775134,3092,-3332,-11968,1741,13847,-3729
775148,5884,-3724,-10556,406,9039,-5484
775160,6556,-4036,-11316,-1030,4491,-6088
775172,6572,-3268,-10512,-2294,-1427,-7138
775184,6976,-2608,-10304,-4480,-8118,-8412
775196,8092,-1568,-11140,-6203,-14618,-8453
775208,7440,628,-13428,-6189,-18235,-8112
775220,5124,3088,-11460,-7392,-21373,-6824
775236,2092,2860,-11860,-7567,-19565,-7745
775248,900,2700,-10440,-7221,-16175,-7677
775260,348,1668,-10068,-6832,-12338,-8451
775272,880,1492,-12080,-6338,-9154,-9948
775284,1492,1588,-11740,-6797,-6500,-11649
775296,3268,1192,-13740,-6766,-2629,-11910
775310,3336,3248,-13388,-6967,-96,-11961
775322,972,1524,-6084,-7093,718,-13275
775334,3048,8696,-13964,-9868,417,-15655
775346,7780,6188,-3752,-7508,1021,-15392
775362,7240,11556,-10500,-9082,-1017,-14091
775374,8912,792,-12476,-8897,-1386,-13435
775386,8464,5308,-14524,-10163,-2971,-12952
775398,7260,9512,-14684,-11233,-5351,-13525
775410,4452,3720,-18252,-12345,-8177,-13176
775422,2032,6516,-16780,-12819,-7238,-12800
775434,-3204,9092,-13448,-13634,-3326,-13317
775446,1664,6752,-12144,-13267,-1326,-14476
775458,1700,8924,-14108,-13982,-480,-13614
775472,4620,13780,-12204,-14107,711,-13978
775487,7532,14384,-15484,-14313,2750,-15486
775499,6596,13508,-11580,-14725,3578,-15389
775511,6344,13520,-8896,-14763,4056,-15017
775523,7456,14532,-4572,-15442,4663,-14561
775535,9532,14844,-7332,-16411,5452,-14122
775547,10564,13292,-7020,-17108,5576,-13886
775559,13524,14196,-6480,-19103,7372,-13098
775571,17968,9808,-6472,-20568,8120,-11317
775583,16164,12480,1620,-21187,11055,-9382
775597,19440,12496,96,-23843,14279,-7844
775612,25436,12476,-3976,-26027,16361,-5339
775624,24992,16788,-1136,-27892,15545,-2134
775636,24324,19468,-2012,-29790,14864,-2080
775648,28096,19924,-6916,-30657,15763,-582
775660,24132,22256,-4276,-31546,16963,716
775672,22808,23384,-4856,-31881,18949,3579
775684,25392,25312,-6324,-32704,19923,7047
775696,22884,25424,-8712,-32659,20396,6398
775708,24360,29632,-7680,-32768,18738,10032
775720,17052,32280,-7588,-32768,17963,12049
775737,17076,32767,-4764,-32768,20066,13688
775749,14636,32767,-2020,-32768,20649,11585
775761,17440,31176,1192,-32768,22226,14828
775773,16248,32767,2456,-32768,22762,11886
775785,17240,32648,864,-32768,19900,15869
775797,24072,32767,-3168,-32768,20028,20550
775809,15560,32767,-412,-32768,15468,19387
775821,14576,32767,-3336,-32768,8026,22018
775833,12848,32767,-5728,-32768,3051,21795
775845,7356,32767,-3164,-32768,-5919,19297
775861,5256,32767,-3816,-32768,-13544,18443
775873,540,32767,-3704,-31697,-20693,14067
775885,-2952,31516,-3092,-29677,-30387,11409
775899,-9784,29096,-6836,-23599,-32768,5656
775911,-15800,22724,-6052,-18672,-32768,1889
775923,-18552,16984,-6008,-15457,-28568,-7925
775935,-13180,15336,-9068,-11991,-20313,-16572
775947,-10912,17876,-12492,-8588,-10742,-22817
775959,-3580,23344,-14132,-3783,1174,-30021
775971,2320,21856,-7968,-357,10273,-32768
775987,8960,16772,1340,2624,16912,-32768
775999,10968,18836,72,4349,17956,-32768
776011,11340,19352,6208,5047,20847,-32768
776023,17812,20680,12336,5360,20081,-32768
776037,19056,24924,9528,6098,19451,-32768
776049,18220,24888,18428,4826,21555,-32768
776061,16024,23808,15708,5752,23556,-32768
776073,14536,27388,13800,7429,27787,-32768
776085,15592,27908,22856,6612,28993,-32768
776097,18600,21808,23900,4675,26814,-30745
776113,16548,22260,17624,5466,26721,-30692
776125,17792,21220,19900,4235,27483,-27400
776137,17832,22048,19380,4126,25492,-22174
776149,15504,17992,16440,3922,25770,-21682
776161,13068,18528,15068,4024,25890,-19246
776173,7340,19720,12744,4346,26040,-19792
776187,5236,20880,11172,4496,30067,-20518
776199,4780,23284,8372,6831,32767,-20288
776211,3972,22592,6732,9039,32767,-19696
776223,6264,21784,10700,8451,32767,-19671
776239,6500,20092,11532,8464,32767,-18432
776251,6404,19824,8932,8760,32763,-17313
776263,2908,19776,7676,8789,29171,-18022
776275,-1444,19740,6884,8059,29852,-18565
776287,-2280,19868,5824,9163,32767,-17537
776299,-3336,19744,3104,10927,32767,-18433
776314,-2064,20828,1812,13062,32767,-18354
776326,-1172,20212,2116,13223,32767,-19301
776338,-988,19772,588,14505,32767,-19354
776350,-1136,18204,-796,15304,32767,-17176
776373,-4964,14736,-3032,16645,32767,-17381
776385,-5352,13172,-4032,18009,32767,-16960
776397,-7064,13044,-5904,20131,32767,-16555
776409,-8188,13116,-7184,22443,32767,-16356
776421,-9104,13436,-8044,25295,32767,-16161
776433,-8764,14044,-8760,28421,32767,-16180
776445,-7280,15600,-8756,31532,32767,-14694
776457,-5656,17800,-9488,32767,32767,-13619
776469,-1216,18880,-8664,32767,32767,-10396
776483,3284,17492,-8272,32767,32767,-7407
776500,10884,13200,-8888,32767,32767,-4146
776512,15672,9192,-9592,32767,32767,-1152
776524,19804,5044,-10136,32767,32767,2101
776536,21720,1512,-9920,32705,32767,4349
776548,27292,-256,-8332,31398,32767,4533
776560,32767,-2352,-4668,28112,29977,7712
776572,32767,-4296,-2252,23941,17857,12851
776584,32767,-3304,1372,19646,3308,18306
776596,32767,228,3384,16000,-8340,21671
776610,32767,5928,2232,13734,-15697,23901
776625,29844,8696,-1204,10411,-20862,23584
776637,32512,8676,-4976,8683,-19032,31270
776649,27252,9860,-7744,8704,-13937,32311
776661,26100,12836,-9964,9468,-6814,32631
776673,24664,13004,-10676,8348,-1743,32767
776685,24448,13312,-11512,7566,4202,32767
776697,23968,15124,-12456,7371,11952,32767
776709,25416,16252,-12908,7233,16582,32767
776721,27056,17532,-13500,5933,16830,32767
776733,27436,19348,-13264,4388,14683,32767
776749,26044,21308,-12532,2709,10664,32767
776761,23756,21844,-12440,2126,8802,32767
776773,21180,22716,-11848,1544,7842,32767
776787,18276,24076,-10908,92,7790,32767
776799,16532,23988,-10864,-986,7953,32767
776811,14116,24032,-10128,-2602,8465,32767
776823,12812,24468,-9800,-4262,10030,32767
776835,12748,24548,-10260,-5479,12698,32767
776847,13696,24920,-10732,-6714,15527,32767
776859,14820,26528,-11140,-8037,16691,32767
776875,15756,29276,-13252,-9349,15045,32767
776887,16252,32652,-15560,-9743,12433,32767
776899,14480,32767,-18456,-9082,8881,32767
776913,7800,32767,-19376,-7519,3105,32767
776925,2152,32384,-19160,-6466,-2142,32767
776937,-356,30688,-18748,-5118,-6543,32767
776949,-1640,32652,-20784,-3656,-10210,32767
776961,-5936,32767,-21892,-758,-14220,32767
776973,-14852,32767,-19280,1917,-17856,32767
776985,-24676,32767,-15600,4306,-14197,32767
777001,-32452,28668,-14280,7530,419,30605
777013,-32768,27908,-17356,8540,11097,26612
777025,-30312,27780,-20468,8739,19508,24695
777037,-26860,17652,-18600,7456,22409,25245
777049,-27128,8288,-12432,6595,16168,21729
777061,-25508,8892,-13248,3666,8275,10491
777075,-25292,20992,-11924,3489,789,12791
777087,-32768,14904,-13224,2096,1343,9537
777099,-32768,11708,-9736,3677,7695,1084
777111,-24020,9744,-5956,2888,10594,587
777127,-19708,5100,-9456,2244,14284,-62
777139,-16828,1996,-9088,2016,19897,-2252
777151,-15388,1140,-12056,2392,23078,-2099
777163,-10752,-480,-10352,1631,24354,-1741
777175,-6220,820,-12292,1384,23975,-3330
777187,6276,4112,-12632,-615,18996,-4048
777201,12180,2892,-13332,-3685,4536,-410
777213,2772,648,-11948,-5916,-3404,1322
777225,-2380,2156,-11568,-6600,-3890,988
777237,-5108,3188,-11108,-7114,-2852,1088
777253,-5420,3540,-11400,-8191,365,-1774
777265,-3644,4636,-13340,-7779,2466,-3159
777277,-1720,5484,-13576,-7367,4826,-3653
777289,-336,5228,-14136,-7325,6321,-3420
777301,-624,5692,-13884,-6773,6859,-4261
777313,1148,3740,-15484,-6546,6627,-3257
777325,484,2336,-14884,-7318,6035,-3281
777337,848,3788,-13828,-7944,5922,-4485
777349,-1240,6144,-19768,-6756,7146,-4584
777361,-4524,-2216,-16328,-8117,7460,-4356
777378,1664,-596,-12492,-8325,8826,-2794
777390,1200,-7036,-6340,-9271,8963,-1029
777402,2896,11664,-3456,-11798,3175,-1543
777414,5340,7168,-21160,-12205,11062,4252
777426,-452,10956,-12104,-10564,13731,2427
777438,7620,6308,-9448,-12174,16659,3216
777450,4820,3984,-11256,-11538,18043,3086
777462,7580,8476,-10584,-12595,20707,4794
777474,8448,11560,-14160,-13593,21834,6661
777486,11600,12724,-8608,-13885,21414,7829
777503,13208,14208,-7828,-15239,21404,8668
777515,13304,14800,-9496,-15499,20828,9956
777527,14628,13904,-8708,-16089,20192,10533
777539,16336,12932,-9852,-16325,20245,11054
777551,16724,13628,-6240,-16591,18830,12037
777563,18376,12884,-7256,-16847,16294,13526
777575,16980,12620,-6736,-17711,13803,14527
777587,16644,13548,-5768,-18320,14143,15730
777599,15456,15544,-4600,-18452,15091,15966
777611,16716,17256,-5320,-18119,16700,16578
777627,16200,20024,-6368,-17156,18222,14854
777639,17672,21348,-8208,-16782,19899,13323
777651,15684,23300,-6724,-15676,19991,12383
777665,16856,21392,-8512,-15047,21149,10613
777677,17380,19664,-6536,-15035,23752,9735
777689,18356,18364,-7460,-14210,24838,8137
777701,16160,18700,-7080,-13675,24390,3475
777713,15144,19952,-6576,-12766,22070,-715
777725,15436,21468,-5200,-11062,21535,-2839
777737,11684,22888,-4524,-9209,20768,-8435
777753,10296,24712,-8120,-8693,26334,-14615
777765,13364,25104,-4456,-9013,27773,-21361
777777,15984,27180,-5272,-7850,28984,-22837
777791,15908,27352,-5964,-3338,24054,-26658
777803,19276,26640,-7724,-1927,18976,-30170
777815,20668,26644,-6736,-2507,17205,-30374
777827,13980,26184,-7152,-2058,16607,-32768
777839,15992,29264,-7752,-1550,17777,-32768
777851,21088,27368,-8288,-406,22072,-32768
777863,20220,25324,-4456,215,20063,-32768
777879,21168,30296,552,68,21292,-32768
777891,19356,26876,-1788,2175,22179,-32768
777903,23920,24524,2308,946,24458,-32768
777915,25016,27552,1664,2483,24498,-32768
777927,23436,29088,6092,3237,23860,-32768
777939,21472,27164,2496,4157,22668,-32768
777951,21800,28376,1532,5340,25343,-32768
777965,21308,25824,5032,5086,26186,-32768
777977,19844,24776,2632,4999,28540,-32768
777989,21596,27816,2184,5906,28291,-32768
778005,19040,25312,508,5729,24645,-32768
778017,17824,25716,-3764,5965,23356,-32768
778029,15824,26824,-6344,7910,23681,-32768
778041,13528,25516,-5244,8086,26021,-32092
778053,10604,24092,-6260,10934,27983,-31098
778065,6008,24124,-7416,13494,28018,-30521
778077,2548,22672,-7088,16208,29614,-30905
778089,2972,20788,-6176,17720,32767,-29650
778101,3112,19028,-5548,19620,32767,-30846
778115,1356,18060,-4108,20805,32767,-31413
778130,1036,15772,-5548,21712,32767,-28436
778142,-172,16976,-5036,23607,32767,-27976
778154,1900,17516,-8700,25615,32767,-25555
778166,3024,18236,-9636,29432,32767,-24649
778178,5320,16468,-10520,32297,32767,-20472
778190,7184,13844,-11696,32767,32767,-17474
778202,9520,13392,-11420,32767,28723,-15763
778214,9168,13964,-11248,32767,23461,-15280
778226,7840,13672,-11116,32767,22592,-14110
778240,10904,12776,-11672,32767,21450,-11934
778255,14436,11388,-11000,32767,14940,-6957
778267,16652,7040,-11536,32767,9533,-4411
778279,15788,1208,-14216,32767,8396,546
778291,15076,-1320,-15960,32767,8952,2556
778303,18804,-908,-16480,32767,8595,4863
778315,23164,-484,-17528,32767,10081,9532
778327,25552,2152,-17300,32520,12853,15963
778339,25676,5584,-17108,31200,14393,21890
778351,24740,7940,-16344,29438,14789,26602
778363,24188,10192,-16696,27309,15111,30866
778380,21888,12948,-15476,24531,15020,32767
778392,20292,15200,-15188,23157,15732,32767
778404,18796,17360,-14180,21864,17125,32767
778416,16372,18388,-12836,20514,19019,32767
778428,14892,19252,-11364,19256,21170,32767
778440,13516,18384,-9572,17777,23672,32767
778452,13008,18052,-7516,16192,25941,32767
778464,13464,18432,-6352,14046,27927,32767
778476,14188,19312,-6512,11476,29350,32767
778488,14744,19484,-7256,9109,30631,32767
778504,15372,18772,-8316,5245,31163,32767
778516,16592,19248,-9404,1892,30839,32767
778528,17772,21176,-10848,-1170,28691,32767
778542,18516,24376,-14704,-4314,23165,32767
778554,16248,26812,-17264,-6165,16284,32767
778566,12104,27648,-19552,-6945,8213,32767
778578,5656,27252,-19516,-6936,-183,32767
778590,-660,26364,-18544,-6621,-7126,32767
778602,-5776,26256,-17800,-4982,-10602,32767
778614,-11204,26556,-17696,-3168,-10489,32767
778630,-17120,27048,-19744,-318,-6154,32767
778642,-19776,28124,-19436,1719,-2408,32767
778654,-21576,26236,-16820,2947,638,32767
778668,-21412,23304,-14208,3907,3746,29329
778680,-19676,23020,-13480,4518,6429,25559
778692,-18156,24656,-12840,4662,8533,23313
778704,-20552,23756,-13948,3999,10625,22326
778716,-25788,17996,-13392,2857,13281,21145
778728,-28040,13904,-13372,2380,16836,18906
778740,-26868,9092,-15180,1362,16657,17450
778756,-26740,11820,-18140,1281,10417,13634
778768,-31052,12116,-21076,-320,5880,8242
778780,-25844,17672,-7908,1651,4052,2459
778792,-30336,2312,-5552,607,10472,3255
778804,-27516,6024,-14540,2462,17570,3280
778816,-17152,1148,-16052,2559,23780,-518
778830,-16704,2948,-10188,2065,22047,-2288
778842,-3652,4516,-15244,511,18747,-1880
778854,2176,4600,-13976,-804,13065,-1481
778866,-1800,1772,-13336,-2660,4914,-1932
778882,-5216,-848,-11148,-4990,-858,1988
778894,-7076,-1236,-10992,-5769,-327,1078
778906,-9136,1012,-9852,-6994,1140,-1211
778918,-8312,712,-10688,-7478,1816,-2276
778930,-5336,2148,-10512,-8067,4000,-3348
778942,-3312,4152,-12188,-7572,5286,-3967
778954,-840,4160,-13400,-7911,4938,-4324
778966,1260,5100,-12536,-8452,5001,-4037
778978,2736,5320,-12076,-9199,3058,-3187
778990,4,10248,-13232,-10610,3061,-3836
779007,-7000,20240,-12376,-12023,2328,-1576
779019,-848,9068,-14624,-11680,7677,-604
779031,-1404,4436,-14268,-11144,6804,-736
779043,1168,4540,-16656,-11599,7980,-1755
779055,1540,5884,-11628,-11932,8139,-1985
779067,-1292,8808,-20552,-11405,8843,-1050
779079,1584,9016,-15940,-12125,10707,-2626
779091,3344,11052,-14960,-12522,10932,-410
779103,1008,7692,-15108,-11056,12486,1251
779117,1696,9180,-12344,-11871,13247,963
779132,2404,8976,-13748,-11522,14098,706
779144,2808,9368,-11984,-12510,14559,77
779156,5248,8244,-9216,-12930,15586,-15
779168,6360,8292,-10644,-12499,15858,-586
779180,9468,5820,-11460,-12358,16087,-693
779192,9492,7324,-9892,-12461,17780,-1719
779204,11036,9816,-10040,-13086,19610,-1185
779216,9800,11580,-5948,-13893,21440,-511
779228,12708,12236,-6380,-15353,22524,6
779240,17984,13964,-7140,-16460,22110,877
779256,18584,15020,-7280,-18346,20575,974
779268,22040,14752,-8584,-19511,19652,1342
779280,21184,16764,-4964,-20913,17539,2275
779294,19508,16088,-5428,-21689,12745,4415
779306,20960,14872,-8808,-21927,10488,3976
779318,15764,15696,-5536,-21208,9048,4910
779330,12280,16932,-4956,-19947,9665,4479
779342,7232,18964,-2936,-18855,11984,2584
779354,5760,22336,-2440,-17541,14374,2272
779366,6068,23368,-1804,-16282,16625,1671
779382,5848,26112,-1688,-15006,16788,-3312
779394,8236,28508,-4348,-14464,16536,-5803
779406,4304,31936,-2612,-13755,15984,-9606
779420,3296,32340,-5092,-12480,17250,-12716
779432,-2224,31384,-6000,-10136,15077,-17738
779444,-2564,32724,-10248,-9872,17805,-24561
779456,692,32767,-8236,-9846,20670,-28403
779468,5532,32767,-10264,-11212,23965,-32767
779480,3204,30896,-9784,-10129,23192,-32768
779492,10052,32767,-9644,-9750,22305,-32768
779508,16972,32767,-7640,-11396,19867,-32768
779520,17952,32767,664,-14033,16750,-32768
779532,17604,32767,-5228,-14101,14970,-32768
779544,17044,32767,836,-14328,17282,-32768
779556,15980,32767,-5188,-12646,15976,-32768
779568,18564,32767,-4400,-10547,16281,-32768
779582,14056,28828,-704,-9527,15653,-32768
779594,15400,30184,-6328,-7860,14131,-32768
779606,11156,29404,-1784,-7262,18261,-32768
779618,10816,28616,1700,-5919,20585,-32768
779634,10052,32767,-6064,-275,21031,-28603
779646,8524,28984,-3536,686,19979,-30604
779658,8668,24580,-2876,1443,18127,-28850
779670,8992,23200,-3600,2600,16723,-30164
779682,8556,28540,-4084,3883,18721,-26657
779694,4664,24620,-3224,4826,20442,-22855
779708,2868,23932,-1720,6501,23115,-25658
779720,692,24480,-2592,8145,26949,-21347
779732,-1092,23608,-1820,9627,29153,-19716
779744,-3036,19840,-1956,10391,30684,-23375
779760,-1912,23256,-3584,13255,32767,-17476
779772,-4216,20916,-2124,14159,32767,-18114
779784,-2148,19712,-2432,15602,32767,-18666
779796,-1364,18576,-852,16186,31651,-16061
779808,-6304,15044,-1192,16745,30459,-15958
779820,-7228,14968,908,16512,32162,-20860
779832,-5212,15408,596,16339,32767,-21850
779844,-3008,14656,56,16830,32767,-19986
779856,-3324,15028,384,18095,32767,-18239
779870,-1828,16044,436,19294,32767,-17097
779885,-632,14920,-2012,21133,32767,-15649
779897,-1264,13544,-1984,22179,32767,-13218
779909,-2052,10240,-1108,23058,32767,-13266
779921,-2648,9904,-2084,23508,32767,-13411
779933,216,10268,-3784,25101,32767,-13771
779945,2272,8444,-5200,27023,32767,-14031
779957,4636,7368,-5472,28227,32767,-13536
779969,7856,5196,-6952,29386,32767,-12284
779981,11304,2672,-7504,30634,32767,-11329
779995,16944,356,-6088,31704,32767,-12394
780010,25892,-4368,-4648,31473,32767,-11076
780022,30984,-6988,-3592,28941,32767,-8940
780034,32767,-6524,-2780,25455,22737,-5330
780046,32767,-4852,-2848,21532,13994,-1335
780058,32767,-5868,-2304,17602,5008,2988
780070,32767,-6292,-4576,13571,-3480,7932
780082,32767,-4324,-7388,10549,-8617,13104
780094,32767,-2856,-8104,8300,-12971,14950
780106,30640,-1472,-9040,5792,-14181,18370
780118,29032,-84,-9816,4784,-11422,21904
780134,26412,2664,-11652,5379,-4596,26675
780146,24516,4228,-11660,6225,1973,29419
780158,24156,4848,-10840,6996,8484,31954
780170,24788,5112,-9408,6850,13018,32767
780184,26324,6284,-8224,5641,15287,32767
780196,26392,8240,-7692,4249,15912,32767
780208,25776,9952,-7608,2306,15181,32767
780220,24604,11760,-8200,245,13599,32767
780232,23172,14452,-8668,-1741,10954,32767
780244,21440,17264,-9776,-3350,8114,32767
780265,18120,22996,-10940,-5052,4847,32767
780277,14844,25476,-11732,-5377,4798,32767
780289,11204,26296,-12740,-5148,6689,32767
780303,9444,24784,-13888,-4742,11734,32767
780315,9188,22688,-14472,-4937,16961,32767
780327,11232,21796,-14468,-5343,20658,32767
780339,12492,21216,-15672,-6159,22141,32767
780351,12060,20492,-16628,-6998,21249,32767
780363,10828,19624,-18112,-8014,18349,32767
780375,9736,20312,-18332,-8856,14151,32767
780390,9012,20780,-18216,-9576,8661,32767
780402,7832,21460,-18584,-9555,4698,32767
780414,5908,24544,-20656,-8749,1469,32767
780426,1096,28704,-21352,-7098,-908,32767
780438,-4928,26696,-20692,-5206,-489,32767
780450,-8116,21112,-20288,-3586,3532,32767
780464,-9000,16208,-20388,-2529,6964,32767
780476,-6592,16724,-22548,-2098,7968,32767
780488,-5468,20456,-23176,-1158,6890,32767
780500,-6872,20424,-22088,-580,5146,32767
780515,-9436,16892,-19264,-846,2461,30750
780527,-10156,15740,-18420,-994,-3,27627
780539,-9020,17912,-18844,-401,-2099,25799
780551,-9928,20104,-18572,116,-4333,25752
780563,-14152,18876,-16584,420,-6007,25181
780575,-18808,14956,-14576,391,-5392,23187
780589,-21412,11680,-14276,1037,-2004,20244
780601,-21072,10352,-15504,1888,1271,16749
780613,-17044,9208,-15384,3060,4101,14391
780625,-15824,8812,-13008,3310,4653,12686
780640,-16832,7488,-10796,3112,5004,10707
780652,-18360,6256,-8664,2947,6435,9985
780664,-18276,4356,-7052,2863,8873,9646
780676,-18624,3120,-7004,2181,10465,8541
780688,-18480,1940,-7764,1712,11392,7074
780700,-18924,4412,-9540,190,10299,5543
780712,-14576,6148,-12044,1447,12423,2397
780724,-13508,4660,-12536,1773,13116,2471
780736,-9440,2404,-13280,1775,15329,871
780748,-9016,-1184,-12408,2187,17856,2753
780765,-5400,-944,-11700,1067,15502,493
780777,1968,-404,-11792,-606,12312,-111
780789,3728,700,-13204,-1822,7299,1679
780801,8560,2084,-12124,-3010,3720,6461
780813,-1388,2692,-11064,-4654,3390,2502
780825,-1456,3640,-12220,-5049,7523,1865
780837,-1148,3988,-13040,-5001,12784,2482
780849,-240,3804,-13136,-3886,16309,2247
780861,2176,2240,-12060,-4330,17297,3029
780873,3556,144,-11452,-4527,16968,4263
780890,4468,-2428,-12588,-6004,15526,3226
780902,3424,-520,-11956,-6230,15198,2692
780914,1988,572,-13996,-6930,16416,3193
780926,5784,6188,-9992,-8717,17745,5541
780938,5852,1368,-13652,-11287,19506,5661
780950,9308,-848,-8808,-11926,19260,8262
780962,7696,-32768,6528,-9281,17189,8911
780974,13812,10756,-17648,-17955,14539,10982
780986,5812,14784,-7384,-15366,16628,9478
780998,11888,10500,-11276,-16864,22825,13482
781013,10244,9256,-8876,-16295,22641,17722
781025,14304,11308,-11508,-17652,24650,18252
781037,14856,12008,-7284,-18077,22802,15351
781051,17736,14504,-9880,-19144,23269,16726
781063,19092,13568,-10940,-18291,22324,19662
781075,19052,13952,-10100,-19359,22976,18434
781087,20840,17012,-6972,-19898,24758,18828
781099,21216,15940,-5600,-18067,25062,20016
781111,23176,16996,-2244,-18616,26687,20901
781123,26992,14472,-5612,-17638,27162,20707
781139,24296,15252,-2812,-17163,25673,21893
781151,23012,15620,-3804,-15210,25816,21691
781163,21532,13688,-5836,-13939,26833,21658
781175,22016,12404,-3284,-13119,28779,20558
781187,24864,11500,-2428,-11586,31188,19999
781199,25728,10964,-3564,-9811,31289,18688
781213,22664,10904,-2052,-9044,28040,14189
781225,20964,11024,-2444,-8772,29972,11868
781237,21636,10920,-580,-6542,29476,6549
781249,23996,10876,-2672,-5908,29156,5057
781264,26004,11160,-5840,-4820,30445,1174
781276,18696,13640,-3012,-4031,27467,-5103
781288,18056,14364,-2708,-4573,29979,-10570
781300,20064,17948,-3240,-2335,30899,-10704
781312,19420,17572,-1976,24,29791,-14851
781324,22348,17980,-972,1261,26915,-21437
781338,18976,16896,-5120,1541,23950,-25937
781350,10064,17616,-3860,3752,22043,-32768
781362,14428,18840,-6612,5588,19796,-32768
781374,10376,19940,-5504,10728,18242,-32768
781389,17476,22872,-4144,12591,14825,-32768
781401,14364,21928,-4644,12453,19122,-32768
781413,20220,26104,-3772,13383,21809,-32768
781425,26572,29284,-884,13135,26106,-32768
781437,31088,28148,2324,11903,23635,-32768
781449,30888,26772,1676,10773,19323,-32768
781461,31548,30852,4832,9081,18373,-32768
781473,28016,25740,17100,5723,16188,-32768
781485,24204,31060,11976,6885,18056,-32768
781499,20320,29420,15796,5849,22800,-32768
781514,22412,32767,12104,8548,30436,-32768
781526,22016,32767,14088,9800,32767,-32768
781538,20272,30128,16432,8286,32236,-32768
781550,21372,30092,9888,7285,32767,-32768
781562,18776,28624,8912,7281,30649,-32127
781574,15184,25820,7496,5755,26798,-29565
781586,12244,26048,3920,5654,28966,-25020
781598,6668,24696,2680,8088,32767,-24496
781610,1740,23852,3624,9825,32767,-26143
781624,1720,25624,996,12652,32767,-23970
781639,-3176,26620,2260,16574,32767,-26645
781651,-3668,26232,3776,18753,32767,-27482
781663,-1032,24668,5004,20902,32767,-27495
781675,-312,21432,3428,22396,32767,-22874
781687,944,21276,360,25896,32767,-22185
781699,2876,21296,-2992,28297,32767,-20319
781711,704,19160,-4916,32146,32767,-19546
781723,5572,17008,-5108,32767,32767,-17983
781735,6876,18952,-8352,32767,32767,-16179
781747,10420,17704,-7804,32767,32767,-15891
781764,14244,15476,-5304,32767,25386,-10525
781776,13112,13544,-7592,32767,18903,-8129
781788,16224,12476,-8728,32767,15657,-6711
781800,19076,10380,-6988,32767,10112,-1411
781812,13580,6228,-8076,32767,5801,210
781824,11336,4284,-12924,32767,7851,-22
781836,17028,7048,-14732,32767,11232,3259
781848,26220,4648,-17284,32767,7108,8876
781860,30004,3744,-12896,32767,-2463,11729
781872,30892,5616,-16668,32767,-3420,14323
781887,21540,12284,-19488,32767,-801,20686
781899,17184,14108,-17720,32409,3769,24830
781911,17920,13492,-17692,31548,11066,29266
781925,19948,14176,-17572,30767,19004,32767
781937,20824,16720,-16016,29734,23428,32767
781949,21364,19276,-14724,28322,25365,32767
781961,21420,22412,-12792,26207,25282,32767
781973,20404,25200,-10848,23425,24216,32767
781985,18648,27912,-9484,20624,22178,32767
781997,16460,29848,-8756,18026,20430,32767
782012,13832,31044,-8448,15507,20119,32767
782024,11592,30292,-9084,14357,23086,32767
782036,10752,29312,-9980,12983,29706,32767
782048,12648,28912,-10384,11125,32767,32767
782060,14820,28472,-10288,8348,32767,32767
782072,16300,27800,-11084,4460,32767,32767
782086,18988,28956,-14272,-942,32767,32767
782098,19132,31492,-18092,-4537,32767,32767
782110,17264,32136,-20028,-7138,29594,32767
782122,14168,29900,-22872,-8179,21176,32767
782137,9852,30340,-26164,-8718,8716,32767
782149,2744,30500,-26460,-7735,-1055,32767
782161,-3796,29180,-23772,-5929,-6535,32767
782173,-8780,29980,-21868,-4881,-9505,32767
782185,-13456,32540,-20896,-3789,-11390,32767
782197,-16592,31484,-20844,-1918,-11262,32767
782211,-18356,28844,-19352,684,-8311,31828
782223,-20112,26588,-15288,1698,-5394,28538
782235,-20172,25376,-14432,2004,-2201,24466
782247,-20524,27124,-14268,2475,2260,21611
782262,-24608,23868,-13320,2380,7421,20655
782274,-26664,17156,-11364,1736,11044,19264
782286,-32768,17540,-10320,3143,12342,17902
782298,-32768,12144,-13696,448,9916,18482
782310,-32040,13056,-9956,1727,6830,706
782322,-31484,16332,-13792,1403,8197,4252
782334,-32768,8388,-5504,-216,12399,4854
782346,-25580,-832,-15636,119,20744,161
782358,-15280,-2820,-11664,-127,22664,-3116
782372,-10608,1324,-10852,-2272,15505,-5529
782387,-6260,3596,-11876,-5655,4068,-3070
782399,-7448,4368,-13620,-6576,691,-3264
782411,-7024,1436,-13880,-8366,-1061,-2733
782423,-8860,388,-13676,-10015,-3891,-3239
782435,-5692,744,-13108,-10524,-4968,-4678
782447,-7220,664,-12444,-11689,-4651,-6107
782459,-5464,2740,-12960,-12532,-3525,-6137
782471,-3404,4816,-13752,-12938,-2808,-5667
782483,-1920,8148,-13772,-12743,-1914,-5811
782497,476,11820,-14596,-12506,-27,-4450
782513,1696,13084,-13700,-13187,1518,-617
782524,2452,13700,-11976,-14468,3341,2581
782536,4524,14360,-10748,-16612,6776,6270
782548,3140,15700,-13488,-17103,8245,9858
782560,2048,13208,-15000,-18253,10058,11980
782572,-2204,10868,-11612,-17837,10925,9668
782584,-3508,12032,-13504,-18243,13185,8263
782596,-840,8768,-9168,-14526,15679,4546
782608,6520,28356,-21380,-17372,22941,8946
782620,4656,28876,-2568,-16205,20907,13305
782637,11492,11236,-16436,-15281,16180,10841
782649,5804,9176,-10264,-16568,14753,11133
782661,6996,5864,-9204,-16527,18903,9806
782673,11104,8900,-6792,-16787,21443,10045
782685,14232,10228,-5088,-17266,24040,12079
782697,14832,10300,300,-17718,26629,11934
782709,18400,8872,-7844,-18529,28524,11783
782721,20180,8048,-6008,-18159,27171,10673
782733,20592,8224,-7600,-17712,28407,9957
782745,21324,8592,-7888,-17067,29847,10836
782760,23496,9084,-9500,-15981,31042,10123
782772,20008,12204,-3136,-14942,30199,8218
782784,25176,10168,-7248,-13495,28862,6672
782798,22620,13436,-1856,-12456,26919,3146
782810,14592,12548,5572,-12605,23819,1899
782822,18312,17236,-3784,-11598,27055,918
782834,13736,23648,7680,-9494,24199,-2011
782846,11960,17908,-1796,-8707,26169,-5085
782858,10488,25100,-2088,-9217,30929,-8056
782870,10900,26632,-2744,-8184,31760,-14105
782885,12348,30168,2052,-7841,28492,-20509
782897,10852,27820,-10784,-7461,27349,-25689
782909,8636,32228,-5556,-7282,22053,-31623
782921,1592,28780,-9652,-7800,16223,-32768
782933,4080,32767,-17080,-7770,15341,-32768
782945,3940,32767,-14292,-8083,22216,-32768
782959,15996,32767,-10852,-7248,23139,-32768
782971,22656,32767,-4580,-10472,23303,-32768
782983,32436,32767,-5508,-10710,19668,-32768
782995,24332,32767,-3604,-13778,20764,-32768
783010,22244,32767,-6956,-11534,19972,-32768
783022,21000,32767,-1496,-11088,21609,-32768
783034,22200,32767,848,-9456,20277,-32768
783046,16116,32767,-1320,-4429,18029,-32768
783058,12556,32767,-8724,1936,19947,-32768
783070,6228,30976,-6304,3668,24870,-32768
783084,5508,29080,184,4859,27726,-32768
783096,8636,29688,-3224,8635,25652,-32156
783108,7032,29100,-5520,10717,25367,-32768
783120,5044,31992,-5264,13391,24782,-29308
783135,2132,25920,-2572,15511,27784,-28912
783147,-600,25024,-4412,16480,30444,-30970
783159,-5820,26524,-6172,18852,32767,-32015
783171,-10868,25520,-2912,21462,32767,-32768
783183,-13724,24704,-1420,23663,32767,-32768
783195,-10520,25568,-1016,26730,32767,-32768
783207,-988,23124,-3940,32351,32767,-29650
783219,-220,25248,-2480,32767,32767,-24902
783231,4684,21224,-1316,32767,32767,-18417
783245,5408,15764,-3064,32767,32767,-11337
783260,9160,14516,-3392,32767,32767,-11817
783272,17260,13184,-3796,32767,32767,-9183
783284,21548,10896,-1580,32767,32767,-3794
783296,27128,2764,-944,32767,32767,467
783308,32767,-6324,-1636,32767,32767,4797
783320,32767,-8420,-1140,32767,15326,7810
783332,32767,-4148,-2220,29480,-1704,12504
783344,32767,616,-5064,24921,-12757,17983
783356,32767,5580,-5016,22158,-14340,20990
783370,32767,12148,-12436,19963,-16901,27460
783385,31632,13048,-17672,19715,-7342,32708
783397,29404,16728,-15696,20755,992,32767
783409,25992,17536,-13924,20393,6353,32767
783421,25868,18616,-13516,19629,13729,32767
783433,27712,19840,-10976,18883,21364,32767
783445,27476,20920,-8732,16640,25144,32767
783457,27080,20304,-6152,12906,25946,32767
783469,25668,22076,-7256,9739,25620,32767
783481,23256,23800,-8072,7037,24428,32767
783493,19868,26384,-7992,4409,24070,32767
783510,16496,29572,-8484,1813,27206,32767
783522,15252,30920,-7936,-46,31725,32767
783534,16476,30404,-8472,-2172,32767,32767
783546,20180,30400,-7936,-4778,32767,32767
783558,27164,32767,-10256,-7885,32767,32767
783570,32767,32767,-13612,-11390,32767,32767
783582,32767,32767,-19116,-14630,32767,32767
783594,31124,32767,-25672,-15568,32767,32767
783606,23016,32767,-28112,-15340,25107,32767
783618,11756,32767,-28828,-14340,13709,32767
783633,1824,32767,-29480,-12903,4984,32767
783645,-4332,32767,-32768,-9512,3617,32767
783657,-9892,32767,-32768,-5459,5499,32767
783671,-14136,32767,-31816,-3037,7104,32767
783683,-14984,29180,-26208,-2805,7412,26831
783695,-16344,26432,-23824,-2587,8697,19882
783707,-16312,27588,-24364,-533,12583,15587
783719,-18824,26856,-25152,960,15345,16795
783731,-20256,17592,-26216,1584,17689,17443
783743,-22160,11948,-22692,2873,17172,14424
783758,-23980,9708,-18732,3291,18668,8472
783770,-25044,8920,-14104,3372,20724,7051
783782,-24468,6904,-10660,555,22042,2601
783796,-19888,2556,-10512,-1577,20777,-1807
783808,-16692,344,-15512,-1781,16456,-6382
783820,-15160,7092,-19728,-1157,17483,-14704
783832,6916,3780,-21900,1036,27577,-13135
783844,32767,-1656,-12164,-2383,9279,4549
783856,-4152,-11812,-14980,-7162,-10903,-7985
783868,1044,-8812,-17880,-7621,-8473,-9782
783883,4368,-4128,-16116,-6114,-3335,-1216
783895,5224,-2504,-17484,-6292,-6010,-1968
783907,1888,-772,-17844,-6506,-9127,-3113
783919,916,528,-16020,-6622,-12369,-4612
783931,-748,2284,-13844,-6232,-12618,-5476
783943,-1252,3560,-13184,-6110,-13242,-6578
783957,-344,3244,-13628,-5858,-13263,-7839
783969,-356,2648,-12544,-5935,-13301,-7853
783981,-308,3208,-12728,-5844,-13315,-8161
783993,-2416,3824,-14192,-6040,-12736,-8657
784008,-3928,3080,-12444,-5668,-9656,-10621
784020,-3632,1828,-9244,-7019,-8552,-9990
784032,-1140,1656,-12744,-7754,-7127,-11277
784044,-2552,2652,-10432,-9062,-6827,-11274
784056,-848,6272,-12276,-9951,-5210,-9691
784068,-4564,732,-11416,-9803,-5516,-12887
784082,-1312,4032,-10812,-10205,-4218,-11877
784094,-4584,-360,-8216,-11969,-5320,-11449
784106,-584,5744,-11536,-11368,-429,-11649
784118,1084,8548,-8720,-12016,-491,-14983
784133,364,11228,-10236,-12164,-503,-12283
784145,1724,15156,-10672,-13071,217,-11954
784157,5412,12004,-7664,-13872,1216,-11375
784169,5592,12760,-9924,-15075,-268,-11292
784181,4808,10752,-11048,-16352,-931,-11293
784193,4416,11076,-8592,-17713,2500,-10764
784205,6120,11516,-7400,-18887,7832,-9946
784217,7176,12208,-5696,-19895,9691,-8973
784229,7416,12304,-5896,-21113,13061,-8396
784243,10668,13732,-6556,-21693,17173,-8764
784258,11564,16724,-2460,-21435,18509,-9361
784270,14036,16872,-5736,-22458,17353,-9534
784282,17996,17636,-6108,-23943,19225,-8516
784294,22928,13372,-10288,-24101,21440,-6899
784306,23056,16652,-3548,-27338,22409,-6196
784318,24156,18096,-6432,-28174,26845,-3700
784330,23948,21344,-4276,-28943,26107,677
784342,25896,27160,-4144,-29932,26874,2474
784354,21140,23172,-4252,-30537,27764,3376
784368,24948,26656,-13420,-31022,31009,4252
784383,24968,26472,-10960,-31205,28938,8698
784395,21440,26540,-7772,-31653,28634,7148
784407,24740,28772,-6440,-31237,26630,11580
784419,20216,31636,-4384,-32649,24442,13577
784431,17380,29968,-3584,-32768,20567,9974
784443,23744,29040,-5528,-32768,20274,13050
784455,20960,29892,-936,-32768,18756,15449
784467,19112,32767,-2740,-32768,15557,15313
784479,13460,32767,-5584,-32768,12372,14042
784491,13572,32767,-5356,-32768,6258,15001
784506,12180,32767,-4352,-31598,940,14716
784518,11200,32756,-7436,-30576,-3975,14096
784530,7592,30456,-6892,-28228,-10314,12084
784544,3764,28748,-5404,-26677,-14381,10061
784556,2108,27032,-5492,-25082,-17588,7567
784568,-356,24452,-3988,-24013,-21684,4171
784580,-3336,23064,-6336,-20781,-23240,-48
784592,-6200,21552,-6548,-17733,-21756,-3942
784604,-9692,19956,-4588,-15824,-17982,-10492
784616,-8988,20604,-8728,-12569,-12767,-16843
784631,-4100,19600,-7892,-10521,-5504,-21774
784643,-1164,20456,-8932,-7134,-2530,-25768
784655,520,25084,-8720,-4999,4119,-30896
784669,5924,27012,-4584,-2371,11790,-32768
784681,11304,22512,2648,-2542,17271,-32768
784693,10052,24528,3632,-1732,17982,-32768
784705,11008,26084,-896,1701,18333,-32768
784717,11104,26888,3884,2190,18178,-32768
784729,12016,25264,4064,4716,16988,-32768
784741,14688,24352,11964,3770,17972,-32768
784756,11616,24156,10972,5147,19544,-31758
784768,9888,23060,13344,5386,22512,-32768
784780,9904,25292,13372,6126,24239,-32768
784792,13356,26624,17048,5626,28853,-28700
784804,13432,23168,20864,4454,26465,-28798
784816,14376,22652,19516,3278,28822,-26816
784830,16296,20328,18544,3218,30221,-22963
784842,13748,19820,15848,3295,27469,-22888
784854,13532,18004,15196,2048,26378,-22924
784866,13328,19512,15628,780,24128,-19434
784881,12456,17692,12560,930,24057,-19867
784893,11456,18604,10504,1329,25726,-21628
784905,8044,19176,6768,1913,28701,-20138
784917,4808,18824,6056,2258,31643,-20624
784929,5060,22196,2232,3658,32767,-19479
784941,2304,21764,1956,5013,32767,-17105
784953,1772,20024,1724,6238,32767,-16261
784967,1316,20112,756,7993,32767,-13927
784979,-780,20152,36,9733,32767,-13700
784991,-1620,19492,-988,10988,32767,-14249
785006,-5316,19428,-1764,12328,32767,-14881
785018,-7828,20292,-2348,13918,32767,-15860
785030,-9992,20556,-3396,16485,32767,-16126
785042,-11104,21200,-3800,18982,32767,-16881
785054,-10988,21456,-3812,21180,32767,-17498
785066,-10032,21816,-3868,23437,32767,-16972
785078,-7948,22440,-4728,25737,32767,-16343
785090,-6108,23180,-6076,28080,32767,-16051
785102,-3600,24000,-8356,30007,32767,-15487
785116,672,22600,-10524,32767,32767,-11691
785131,2048,19436,-12160,32767,32767,-10678
785143,3920,16572,-14044,32767,32767,-8720
785155,5080,15832,-13612,32767,32767,-6939
785167,8264,14568,-13152,32767,31712,-4307
785179,11944,11108,-11732,32767,30430,-1581
785191,14656,6908,-8768,32767,30567,637
785203,19072,4004,-7424,32767,26906,2732
785215,23096,2340,-6272,32767,20491,5844
785227,21172,1236,-7724,32767,14060,8074
785241,20020,64,-7840,32767,8528,9120
785256,25520,576,-5184,32079,5684,8219
785268,29436,-1888,-6772,29220,7142,13600
785280,32004,-1488,-7988,27037,9395,19152
785292,32144,2708,-8344,24801,11534,21542
785304,32767,5008,-6156,21943,14304,26293
785316,32767,4792,-4336,18668,15972,31758
785328,32767,4940,-4324,13993,15699,32767
785340,32767,8092,-5396,10758,15323,32767
785352,30840,10508,-5020,8207,16200,32767
785364,28748,12508,-4984,5457,18187,32767
785379,26836,15836,-5756,1811,20625,32767
785391,26628,18804,-7192,-1182,21345,32767
785403,26804,21704,-7968,-4138,20438,32767
785417,26228,25524,-9900,-6844,17782,32767
785429,24560,27648,-10840,-8536,15151,32767
785441,23356,29092,-11820,-9793,13538,32767
785453,21960,30156,-12432,-10895,13482,32767
785465,20944,30508,-14056,-11466,15998,32767
785477,21356,31528,-13868,-12083,19599,32767
785489,21792,32172,-14120,-13282,21132,32767
785504,22736,32767,-15776,-14608,19051,32767
785516,21216,32767,-18872,-14750,13036,32767
785528,18048,32767,-22772,-13341,4817,32767
785542,10860,32767,-24300,-10657,-4909,32767
785554,5936,32767,-23140,-7545,-11111,32767
785566,2964,32767,-22932,-4579,-16032,32767
785578,-3656,32767,-20788,-1230,-20491,32767
785590,-10348,32767,-18120,1937,-21210,32767
785602,-16876,32767,-17856,4354,-17240,32767
785614,-21056,32767,-17924,7184,-9327,32767
785629,-23308,32767,-15564,10097,2109,32767
785641,-22928,28664,-12508,10939,8827,30627
785653,-23220,24784,-10004,10042,11261,26354
785665,-21616,22472,-9164,8234,10696,21913
785677,-20688,22584,-10136,6062,9568,18764
785689,-21816,20692,-11452,5007,9394,17260
785704,-22640,16596,-9764,4392,9791,15064
785716,-24484,14372,-8692,3222,8215,11578
785728,-25740,11460,-12556,1394,7884,5095
785740,-27656,15364,-12548,882,9249,7676
785763,-26444,9964,-14276,216,7605,6740
785775,-23756,10980,-8652,2209,10648,-2262
785787,-23520,4364,-6524,2665,19537,989
785799,-16960,-1240,-12276,2444,23461,2298
785811,-13192,-2648,-13356,2089,26675,-956
785823,-8016,344,-12088,1868,24047,-2878
785837,-2236,1004,-10672,-1481,11320,-1767
785849,1232,-548,-11112,-4343,2670,-3332
785861,-5608,-1936,-10784,-6381,-2427,-519
785873,-4956,324,-11044,-6930,-1240,-2368
785890,-1892,3980,-10596,-8484,1514,-3964
785902,256,6136,-11236,-9464,2975,-4021
785914,2560,8036,-12544,-9430,3472,-3495
785926,2532,9164,-12216,-10630,2331,-2627
785938,1776,8100,-12804,-11106,1442,-2150
785950,2220,8612,-13132,-11402,1456,-935
785962,1864,9428,-12900,-11820,1559,549
785974,1756,8160,-14348,-11547,2711,2557
785986,1668,9396,-13744,-11597,4970,4427
785998,3320,10660,-12800,-11733,7508,6929
786015,864,8404,-13040,-11234,11146,10483
786027,-3968,5200,-10184,-11439,13676,9435
786039,-6220,4840,-8192,-9610,14678,5612
786051,5692,8856,-9196,-14117,20594,7846
786063,2288,15560,-7148,-14059,20203,9519
786075,6652,8848,-9476,-12406,21208,10192
786087,9708,11120,-11872,-12750,23189,10690
786099,8820,12144,-7480,-12573,24291,11289
786111,9912,9984,-11752,-12446,24429,10837
786123,13124,9708,-4676,-13094,25152,10397
786140,14164,8260,-8168,-14006,24417,8551
786152,15288,12344,-7084,-14510,25348,7363
786164,19584,16064,-3980,-15569,26939,7923
786176,20808,15860,-3760,-15991,28327,9363
786188,23628,13264,-2688,-16574,28394,9386
786200,23468,14396,-2148,-16849,26392,9733
786212,28624,12136,-4736,-16890,25121,9513
786224,24828,14100,-2980,-16685,22385,9377
786236,25464,12704,-4036,-16048,20509,9894
786248,21816,15472,-2580,-16308,19071,8815
786263,17820,18580,-1692,-15213,18153,8365
786275,16208,18716,392,-14275,21252,7999
786287,16668,19044,-2772,-13178,25607,5435
786301,17320,18776,-4696,-11988,28923,3738
786313,17132,20036,-2704,-11530,30735,-160
786325,20100,21816,-2896,-11701,31647,-3627
786337,17208,24536,-4044,-11964,28745,-8141
786349,13040,24468,-5956,-12014,25240,-12790
786361,10780,23980,-4920,-11717,23270,-17712
786373,7204,26196,-7268,-12624,23292,-22800
786388,2652,26080,-9752,-10469,21981,-32768
786400,8024,26156,-10772,-9083,18100,-32768
786412,8400,29600,-9812,-10003,18236,-32768
786426,12484,31688,-7428,-7334,16133,-32768
786438,15656,32767,-7924,-10529,22860,-32768
786450,21280,32767,340,-10535,23134,-32768
786462,25560,32767,556,-13675,23072,-32768
786474,24868,32767,-680,-11550,20654,-32768
786486,20212,32767,-992,-9784,19175,-32768
786498,20832,32767,4032,-10893,19007,-32768
786513,16960,32767,1748,-7300,22638,-32768
786525,16680,32767,4896,-5534,25043,-32768
786537,13888,32767,1124,-809,26984,-32768
786549,8528,32767,-168,2259,32241,-32768
786561,10048,32767,5444,3884,32666,-30621
786573,11576,32767,2240,6285,32759,-29611
786587,11460,31572,2300,7924,32767,-26927
786599,9068,31496,4584,9104,32767,-26317
786611,5764,32616,2840,10983,32767,-25454
786623,4324,31900,1132,12871,32767,-22850
786638,-1512,30960,3688,16038,32767,-22332
786650,-2728,29856,4868,19434,32767,-21380
786662,-5776,30976,2484,23544,32767,-22329
786674,-2328,29056,2140,28524,32767,-25936
786686,-4944,25312,2516,30621,32767,-23237
786698,-9304,26256,5116,31391,32767,-26320
786712,-4380,24024,3420,32767,32767,-18390
786724,-2720,25308,3048,32767,32767,-12120
786736,3360,24068,1596,32767,32767,-8156
786748,3612,19152,1132,32767,32767,-1224
786763,9956,18272,-1868,32767,32767,-2897
786775,17028,16500,-2840,32767,32767,-1105
786787,25600,13176,-1188,32767,32767,1675
786799,32767,11524,736,32767,32155,6738
786811,32767,3972,-1216,32767,17783,9960
786823,26804,-320,-2968,32767,10806,10393
786835,32384,-4112,-1028,32767,9071,12272
786847,32767,-7088,48,32767,10134,10894
786859,32767,-3144,-2124,32767,7570,16972
786871,32767,-1840,-140,30379,-258,24927
786888,32767,5200,864,24267,-6050,32767
786900,32767,10868,0,20395,-7284,32767
786912,32767,15224,-1008,17591,-5539,32767
786924,28968,18296,-940,15137,3857,32767
786936,26592,17408,-856,12706,15989,32767
786948,27720,16324,-64,9709,26129,32767
786960,30428,18020,732,6398,31587,32767
786972,31788,20512,704,2273,32686,32767
786984,32767,23888,1064,-2082,30321,32767
786996,32767,27204,792,-5994,25264,32767
787013,31104,32767,556,-9585,16867,32767
787025,28388,32767,-2728,-10819,14834,32767
787037,27056,32767,-6008,-10309,18162,32767
787049,27556,32767,-9352,-9541,26064,32767
787061,27344,32767,-12992,-9193,32767,32767
787073,27572,32767,-16968,-9331,32767,32767
787085,24828,32767,-19360,-9759,32767,32767
787097,20476,32767,-20140,-10016,31242,32767
787109,15656,32767,-21192,-10259,25945,32767
787121,10292,32767,-21992,-8881,19724,32767
787136,3132,32767,-23996,-6196,16249,32767
787148,-1272,32376,-23096,-3890,17366,32767
787160,-3420,32048,-25708,-2989,21016,32767
787174,-2444,32767,-31332,-2059,25878,26566
787186,-2384,29944,-32036,-1828,27637,23216
787198,-3488,23324,-30820,-2248,27584,19025
787210,-5432,18196,-29024,-3190,24730,13741
787222,-4864,15168,-28200,-4325,21159,8661
787234,-4356,15408,-28288,-5758,16243,5889
787246,-3960,17504,-30728,-6113,12044,4859
787261,-10032,20656,-32768,-5109,12468,3597
787273,-10968,10476,-32768,-4868,14824,5741
787285,-11972,4656,-32768,-1751,16398,7486
787299,-14576,5756,-26572,1969,17983,2808
787311,-13328,1256,-21188,2512,19160,-1259
787323,-8576,1420,-16484,2460,16938,-842
787335,-4900,3188,-15112,-296,15553,-4589
787347,3896,-868,-20944,-1107,10752,-5014
787359,14364,-3096,-21272,-1058,9980,940
787371,5972,-2952,-14912,-3196,-4399,4078
787386,264,-3820,-14964,-5558,-10699,-1521
787398,2240,-3612,-16252,-4601,-7749,1144
787410,2448,-3920,-16276,-4165,-5856,1841
787422,2804,-2988,-15252,-4196,-6442,1893
787434,1604,-3428,-15104,-4516,-6966,1209
787446,1000,-3628,-14708,-4814,-6474,317
787460,1104,-3136,-14392,-3952,-5409,-2075
787472,1216,-2268,-13384,-4108,-5201,-2902
787484,1628,-1116,-12096,-4198,-6251,-2816
787496,2680,-1256,-12824,-4656,-8752,-3529
787511,4236,536,-12504,-5519,-12444,-3051
787523,3196,3568,-12104,-7009,-16765,-3406
787535,1192,1388,-12684,-7688,-17760,-2441
787547,-2440,204,-10628,-7496,-15996,-3149
787559,-2368,1012,-11176,-7222,-14892,-4462
787571,-3604,5620,-9724,-7193,-12831,-6392
787583,-3140,6508,-7588,-7142,-9612,-7818
787595,-5208,13716,-16832,-7809,-11633,-8081
787607,-6812,11252,-7412,-8176,-7516,-7253
787621,-4520,3776,-7504,-8681,-2731,-8477
787636,-2376,8952,-11604,-9087,254,-7950
787648,-360,8296,-11540,-9867,2110,-11083
787660,3072,8764,-13920,-10027,2026,-10156
787672,6468,4876,-10604,-10326,740,-10270
787684,-324,6360,-15544,-11554,-1791,-10735
787696,1456,5288,-15308,-12362,-209,-10241
787708,3384,9364,-15244,-12536,-383,-10843
787720,1592,8436,-12524,-13478,410,-10555
787732,2452,7372,-13684,-13258,1107,-10677
787746,1220,9500,-12304,-13503,1256,-11244
787761,2812,11972,-10800,-14319,2391,-11397
787773,3216,12872,-8780,-14957,4318,-12564
787785,5216,12704,-8684,-15345,5473,-12640
787797,6372,11560,-11444,-16657,4639,-12879
787809,6412,10640,-5528,-17963,7109,-12363
787821,11652,11292,-7372,-19319,8949,-10238
787833,7828,16512,-3664,-20622,9351,-9606
787845,13552,14168,-11044,-21032,11501,-10725
787857,12588,20148,-1800,-21748,14567,-10243
787869,19556,17196,-4852,-22528,19265,-6903
787886,18868,15780,-3096,-24262,26036,-4527
787898,23096,14316,-628,-25990,28850,-2010
787910,23496,15948,-928,-28199,27078,-1
787922,28364,18700,-1324,-29943,24198,260
787934,31332,19472,-5292,-31140,21445,3084
787946,28268,24024,-4300,-31978,19890,4944
787958,26144,25772,-10164,-31969,22721,6831
787970,22460,29932,-11116,-31741,24569,7567
787982,22744,31804,-9180,-31524,25248,8826
787994,21732,29876,-8768,-31618,29403,10865
788009,19952,27904,-5488,-32239,23989,11364
788021,19792,27104,-5412,-32606,21973,11258
788033,18020,30024,-1792,-32768,20969,8090
788047,15592,32767,-1372,-32768,18852,14481
788059,15340,32767,-3552,-32768,22222,15145
788071,13500,32767,-2424,-32768,18544,15291
788083,11404,32767,-4568,-32263,11195,13910
788095,12920,32767,-3620,-32768,9728,16264
788107,8276,32767,-2532,-32617,3969,13300
788119,10424,32420,-1028,-31322,-2139,12328
788134,13168,28544,-4968,-30274,-7435,10456
788146,8524,32320,-5936,-28867,-16377,7520
788158,636,29812,-5352,-26482,-26171,5130
788172,-6340,26368,-5892,-23649,-27498,4204
788184,-11012,23884,-9268,-18417,-25063,-1365
788196,-14812,19336,-9304,-15645,-18655,-8013
788208,-16880,14048,-8284,-13177,-9564,-19582
788220,-8152,13376,-10744,-9806,-2619,-27545
788232,-268,16208,-11312,-7574,2941,-32339
788244,3780,22356,-12252,-4324,4638,-32768
788259,6892,18408,-5180,-3606,10778,-32768
788271,8284,18636,48,-3490,14392,-32768
788283,10876,20452,1216,-1753,19095,-32768
788295,11476,26912,-5676,2389,21083,-32768
788307,15600,27564,-212,4383,22030,-32768
788319,16480,23556,8780,3223,20616,-32768
788333,13796,27288,1612,7344,22182,-32768
788345,11396,26184,10500,6672,21571,-32133
788357,6832,23448,5764,8617,22804,-28756
788369,7268,23892,10296,9172,25946,-28968
788384,7828,22708,19204,5517,22553,-26677
788396,6556,22332,13836,7485,23969,-25881
788408,10104,23408,16464,6215,25890,-22029
788420,8220,23832,18812,5333,22784,-16472
788432,4612,20604,16256,4724,21697,-15673
788444,3884,19252,14424,4148,19803,-15705
788458,924,18992,13076,4090,18421,-16736
788470,508,18952,15484,2578,19459,-19084
788482,3140,19404,14612,3218,21572,-18800
788494,4532,20612,12328,3998,25385,-17016
788509,3624,20636,12580,4446,27879,-16362
788521,1864,20720,12100,4383,28067,-14938
788533,280,19204,10016,5305,30384,-15058
788545,656,19836,7804,6421,32767,-14436
788557,-1628,20652,7572,7198,32767,-13538
788569,-3068,21036,8324,7490,32767,-14213
788581,-2052,21768,7916,8736,32767,-13325
788593,-160,22020,6144,9919,32767,-10947
788605,-1980,21024,4184,11497,32767,-10662
788619,-2248,20500,2676,12442,32767,-12656
788634,-3348,20616,876,12969,32767,-12872
788646,-3168,20756,-224,13752,32767,-12756
788658,-2860,20472,-2000,14685,32767,-12812
788670,-3092,19592,-4936,16026,32767,-12598
788682,-3948,18860,-7088,18349,32767,-13028
788694,-4100,18372,-7704,21616,32767,-13099
788706,-4560,17456,-9036,25269,32767,-13302
788718,-3224,16900,-9168,28600,32767,-11911
788730,-1200,16652,-9432,31815,32767,-9288
788742,852,15984,-8756,32767,32767,-6840
788759,2052,14912,-9056,32767,32767,-5030
788771,4700,14512,-9092,32767,32767,-4621
788783,6820,13864,-9612,32767,32767,-3325
788795,7692,11764,-9452,32767,32767,-1928
788807,9764,10164,-9364,32767,32767,-832
788819,12280,9252,-10152,32767,32767,1368
788831,14908,7308,-10476,32767,32663,3852
788843,18616,5364,-10336,32767,29393,4572
788855,22040,2048,-9300,32290,25358,5323
788867,26336,-2200,-7400,30206,20132,6702
788883,32767,-5296,-4700,27687,10409,9689
788895,32767,-4420,-576,24597,-960,11510
788907,32767,-3940,4972,20476,-11044,16368
788921,32767,-3208,7880,15952,-20302,20593
788933,32767,3104,4764,13942,-27895,20903
788945,31936,10060,-120,11144,-32768,23191
788957,31164,9064,-3220,9837,-27221,26465
788969,27208,7100,-8164,11557,-18235,28430
788981,24424,11520,-12108,11030,-10527,32556
788993,23956,11832,-11484,10551,-1892,32767
789009,26188,9876,-12492,10398,9342,32767
789021,28372,12172,-12704,9947,14662,32767
789033,29768,15956,-12756,8952,16315,32767
789045,29520,19228,-12620,7444,14910,32767
789057,28244,22776,-12840,5797,13278,32767
789069,24608,26604,-13172,4424,12477,32767
789083,19948,29536,-13292,2851,12299,32767
789095,16100,29156,-12344,1320,13180,32767
789107,13264,29268,-11900,-642,15081,32767
789119,11384,30140,-11096,-2420,17225,32767
789135,11348,31268,-11880,-4616,20223,32767
789147,12656,32172,-13876,-6168,22288,32767
789159,15204,32224,-17080,-7694,24135,32767
789171,15512,32468,-19764,-8846,23541,32767
789183,14560,32767,-22188,-9342,20071,32767
789195,13008,32767,-24672,-9319,14247,32767
789209,8452,32767,-26028,-8216,5301,32767
789221,2288,32767,-26828,-6194,-2702,32767
789233,-5236,32767,-25156,-3749,-9029,32767
789245,-12312,32767,-23324,-1129,-12686,32767
789261,-22256,32767,-21920,3311,-11478,32767
789273,-27800,31744,-21232,7311,-3772,32289
789285,-31168,28584,-18004,10318,6676,28048
789297,-29308,24364,-15572,11084,15949,23272
789309,-25060,23740,-15584,10810,22552,18955
789321,-20928,23756,-16252,10600,26793,16519
789333,-18656,20168,-15840,9679,28988,16073
789345,-17848,14392,-16388,7508,27689,16419
789357,-16996,10592,-16020,5555,22846,15532
789371,-17716,8688,-14132,3756,13015,11877
789386,-21664,12756,-13344,1817,6230,8425
789398,-25984,13292,-12468,1069,3066,9197
789410,-25624,10116,-12012,-152,5330,999
789422,-22532,7548,-11632,396,9583,-824
789434,-20856,1664,-9660,-591,14620,995
789446,-19580,-76,-17544,526,17230,-1910
789458,-11780,-4228,-14672,-123,22382,-4230
789470,-8744,-6096,-12384,787,22480,-1077
789482,292,-1940,-14840,689,14985,-3834
789494,-2092,-2740,-13368,-2518,7000,-3239
789511,-468,-3828,-12760,-4670,-686,-2767
789523,-2004,-3552,-13040,-5219,-1327,-2216
789535,-2204,-3084,-12780,-6320,-932,-3888
789547,128,-756,-12276,-6286,543,-3914
789559,2964,1816,-12808,-6674,522,-3890
789571,3008,4176,-13716,-7173,-508,-4836
789583,3440,5068,-13984,-7632,-1794,-4708
789595,2244,6524,-14408,-7858,-3270,-4307
789607,268,6816,-15072,-8203,-3684,-4759
789619,-120,6672,-15212,-8682,-4442,-5394
789636,-3040,5032,-16264,-8035,-2980,-6020
789648,-1592,4600,-15584,-8344,-1952,-6103
789660,-2000,4848,-15148,-8876,-3052,-6094
789672,-3692,5688,-11712,-9133,-2725,-5857
789684,-4076,6244,-9456,-8981,-1953,-4730
789696,-5328,3960,-14024,-8873,1107,-4470
789708,-6428,-1472,-11524,-8897,4093,-3238
789720,-920,19016,-27960,-10368,1769,-5425
789732,612,4880,-5344,-13033,3848,-984
789744,-2128,3812,-13880,-11707,6703,-1538
789760,-324,8228,-8240,-12913,8957,330
789772,-748,8192,-13656,-12979,11505,3007
789784,-588,11676,-11636,-12366,14691,3350
789796,-1496,10640,-3104,-12772,18799,5024
789810,4776,9380,-11472,-14089,22500,3226
789822,11216,14080,-6584,-15364,22265,548
789834,11508,16552,-5812,-16423,20560,1802
789846,16384,15480,-5616,-17131,22512,4894
789858,19504,15732,-4536,-18816,22442,7396
789870,21348,15092,-3816,-19945,22533,9147
789886,25656,13888,-5116,-21733,20775,11205
789898,28652,11928,-6332,-22488,19309,13478
789910,28444,12936,-5024,-23898,17982,15360
789922,28444,13628,-5468,-24595,16249,16706
789934,27476,14616,-6448,-24969,13569,17597
789946,25768,14344,-8244,-24345,11750,17874
789960,20856,15792,-8544,-21732,8247,15450
789972,16124,15880,-9772,-20934,5386,14269
789984,11156,16940,-9032,-20220,3882,16601
789996,4004,18328,-9828,-17673,4864,13883
790012,2672,16976,-9108,-15837,10455,9404
790024,3580,15436,-6964,-14672,15094,4965
790036,6124,16404,-10276,-12609,19458,612
790048,7388,18932,-10676,-11264,20893,-3291
790060,10464,18916,-12196,-10454,17047,-8887
790072,12064,20184,-11404,-11276,13186,-10789
790086,14920,20464,-11244,-11629,14886,-14412
790098,15080,21408,-11008,-11783,17484,-17910
790110,14948,22512,-11916,-10322,20512,-22348
790122,16596,22600,-9888,-10061,21147,-23289
790138,19680,24528,-10252,-8235,23513,-24093
790150,21136,26144,-10184,-5552,22023,-25392
790162,21268,24788,-8764,-6638,22171,-25262
790174,21544,26064,-8980,-5849,21440,-23490
790186,20764,26408,-10116,-5163,21314,-21936
790198,19920,27832,-8568,-2873,18725,-21384
790210,21460,27200,-8188,-633,16596,-21278
790222,19000,25176,-8180,1347,15258,-21757
790234,17256,21780,-6152,540,14557,-21829
790248,18220,22256,-5848,1941,14295,-21709
790263,15784,21796,-5176,4186,12539,-23371
790275,15236,21380,-4616,5134,9400,-23076
790287,12576,21680,-4368,5363,9121,-23679
790299,12108,20628,-3356,6615,9425,-24732
790311,10984,21140,-3584,7873,10833,-26773
790323,11068,21260,-4408,9393,11737,-27023
790335,9940,19984,-4592,10110,10930,-29076
790347,10072,20112,-3952,10005,9071,-31400
790359,9592,21772,-3972,10687,7650,-31886
790373,10004,20980,-4116,10988,6825,-32359
790389,8624,19176,-4904,14205,5656,-30209
790401,5124,20468,-4668,16010,5810,-31070
790413,7080,19684,-4580,18740,6317,-32245
790425,5584,18672,-4012,20136,8834,-32768
790437,6608,17908,-4292,22228,10612,-32768
790449,4596,14512,-2864,22797,12258,-32314
790461,2124,13048,-2220,22956,13387,-32768
790473,-220,11940,-2888,24591,15962,-32768
790485,-1028,11296,-3440,25826,19910,-32768
790497,-1168,11532,-3824,27318,25054,-32768
790514,496,12884,-3480,28854,29619,-31625
790526,2004,12628,-3464,29476,30260,-28978
790538,2872,11724,-5128,29938,31234,-26722
790550,4232,10140,-5928,29818,32325,-26098
790562,5700,9144,-7240,30204,32203,-26283
790574,8908,8204,-7764,29840,30545,-27881
790586,11360,7004,-9172,28850,27919,-27152
790598,11924,6848,-12012,28756,25119,-25692
790610,11840,6864,-13312,28443,22888,-25214
790622,13168,4808,-15904,29109,20794,-22576
790638,15524,2488,-15896,29701,20183,-17998
790650,17340,-1012,-16832,31000,20623,-13997
790662,17912,-5124,-16504,30065,19112,-10494
790676,20628,-8428,-17268,29149,20431,-5661
790688,21868,-9400,-16832,29044,22212,-1754
790700,23004,-7228,-19440,29128,24828,1612
790712,25920,-3348,-17480,28762,25715,5153
790724,30148,-1016,-15420,26767,22636,11151
790736,32276,400,-14212,24009,18938,15427
790748,32767,2372,-13192,21235,16127,20151
790764,31992,6164,-11024,17127,14017,27541
790776,30028,6852,-9996,14228,15001,32767
790788,29308,5732,-9636,11498,17146,32767
790802,30708,6256,-9620,8808,17929,32767
790814,31048,8312,-9036,6571,15881,32767
790826,29248,9812,-7788,4322,12761,32767
790838,27380,11992,-6996,2248,10500,32767
790850,25768,14576,-7312,485,9695,32767
790862,23864,17024,-7476,-1057,9399,32767
790874,22228,18768,-7928,-2286,9596,32767
790890,20620,21748,-7624,-4298,8987,32767
790902,21028,24356,-8456,-5471,8344,32767
790914,21340,26464,-9764,-6539,7047,32767
790926,21068,28832,-11480,-7051,4863,32767
790938,19456,31888,-13816,-6661,2174,32767
790950,15444,32767,-15084,-5617,-1393,32767
790964,5568,31676,-13468,-5773,-6248,32767
790976,-624,30408,-15128,-5404,-8984,32767
790988,-3756,32767,-16932,-3493,-8664,32767
791000,-7132,31984,-18880,-1550,-6300,32767
791016,-8468,30016,-24428,2026,358,32767
791028,-10644,31120,-24376,4082,2839,32767
791040,-16520,30692,-21624,3291,4053,31537
791052,-25136,27800,-20380,2565,3980,26820
791064,-28948,25076,-22476,3163,7086,22583
791076,-25540,19876,-24472,4514,12428,22836
791088,-21076,15080,-25632,5907,11515,25503
791100,-19416,17296,-22736,5791,5587,20820
791112,-19488,15100,-18956,6034,-185,17597
791126,-32768,8548,-15600,4176,70,9848
791141,-30196,12280,-11140,9032,8792,10119
791153,-30272,11676,-8392,7683,11362,11755
791165,-25864,6216,-5256,8437,21510,6838
791177,-22020,544,-3300,7569,26784,3640
791189,-17344,2212,-5564,5511,24755,4318
791201,-15368,4180,-5704,4011,22869,3136
791213,-11864,4120,-8328,3152,20440,1120
791225,-10296,1712,-7728,1369,17257,917
791237,-10664,740,-10240,-181,12740,307
791249,-7032,944,-12948,-474,10912,-1144
791266,-4068,-988,-13568,-1169,8961,-272
791278,-3880,-768,-13984,-1549,5816,1045
791290,-3712,-1524,-12544,-3095,3417,1125
791302,-668,-2356,-12936,-4230,1384,1161
791314,-1008,-2632,-12584,-5322,-1631,1294
791326,-4652,-500,-12428,-6005,-4322,249
791338,-5100,1084,-12428,-6359,-4609,-568
791350,-6576,568,-12100,-6306,-3399,-2071
791362,-5704,-340,-11240,-7043,-2290,-2312
791374,-6500,-2116,-11712,-6727,-409,-2224
791390,-5016,-100,-11452,-7016,618,-3077
791402,-1400,1148,-14828,-7307,2673,-2906
791414,-532,980,-12404,-8398,2157,-2071
791426,-36,3528,-15920,-8329,-320,-2871
791438,6452,9520,6284,-8705,-3702,-3977
791450,-3360,7976,-10892,-11912,-2527,-6157
791462,-2020,1288,-15572,-11154,-3570,-6288
791474,-2940,5204,-9680,-11602,-3523,-5953
791486,-5576,9848,-11404,-11145,-3351,-4652
791498,-4876,7556,-7012,-10840,496,-6098
791514,-1876,4612,-13400,-10888,1746,-6668
791526,-2648,4840,-12236,-10865,946,-6674
791538,-68,5856,-13416,-11265,164,-6218
791552,-1784,8736,-10744,-11894,-1272,-7049
791564,-1772,8112,-11716,-12551,-3836,-6484
791576,-220,6168,-13896,-13823,-1732,-6020
791588,728,7516,-13472,-14590,-2306,-5722
791600,-2696,8856,-7920,-15395,-4017,-4273
791612,-2860,6908,-10588,-16824,-4210,-4381
791624,-2512,9756,-11080,-16713,-2324,-5431
791640,-968,10156,-10640,-17840,322,-2079
791652,584,11628,-10484,-18731,1700,-1202
791664,1556,12860,-9072,-19610,2473,659
791676,2036,13384,-9604,-19983,4629,3804
791688,3724,12624,-9992,-20332,7530,4504
791700,5700,12592,-10204,-21116,9635,5009
791712,6916,14104,-9316,-22023,13031,5013
791726,9416,14376,-8952,-21850,18073,6839
791738,11300,15364,-7468,-22111,21226,8753
791750,14612,15332,-11668,-21984,23488,9939
791766,18708,16624,-11820,-22534,25477,11056
791778,21032,17244,-10784,-21651,26110,12556
791790,22844,18552,-10668,-22309,24069,13325
791802,24316,18340,-11812,-21945,22190,15421
791814,22876,19908,-12712,-20972,23186,17300
791826,23756,21840,-12704,-20115,24102,20082
791840,21964,23320,-11988,-19390,24252,21781
791852,21172,24608,-11888,-19665,25185,23146
791864,21956,25712,-11448,-19128,24070,24645
791876,21092,27136,-9752,-19753,21630,24680
791892,17156,27536,-8040,-21319,16037,23000
791904,13504,28140,-7188,-21518,15429,23054
791916,9844,28340,-7524,-22156,15818,22099
791928,10952,29724,-6292,-21841,16402,21108
791940,10484,29808,-7084,-21304,14143,19907
791952,10200,28856,-5704,-21046,8584,17825
791964,9884,28764,-5024,-21941,3290,17144
791976,8012,31584,-6388,-20098,-140,18061
791988,2228,26864,-5028,-21135,-4461,12462
792002,-7784,22740,-2684,-24186,-8056,2728
792017,-8780,20732,-3556,-21682,-1089,-4119
792029,-4776,22608,-2008,-18285,6287,-6955
792041,-700,26088,-2616,-16574,11804,-15307
792053,4324,25148,-4368,-16860,11348,-18252
792065,1440,28624,-4820,-16092,8554,-23646
792077,3396,27576,-5780,-13649,11511,-21618
792089,6340,24420,-3860,-12162,17487,-23963
792101,9500,27072,-3044,-11658,19467,-22811
792113,11424,25580,-2744,-11048,24120,-21417
792127,15220,24228,-1856,-10160,23461,-27278
792142,14436,25124,-284,-8785,23081,-27325
792154,12992,23624,3448,-6004,21301,-24764
792166,12064,21772,2224,-2837,23514,-22727
792178,15028,21792,4356,-1414,25822,-23959
792190,14920,21704,5056,83,24856,-24430
792202,15960,21576,5904,867,23156,-21656
792214,14408,20744,7328,1665,23871,-19674
792226,14436,20648,7468,2729,24106,-21312
792238,13236,18208,7664,2716,23193,-21326
792250,13740,20388,7876,3671,24786,-21991
792267,14448,23124,7548,5022,25518,-18127
792279,12788,22620,7384,5172,26246,-18164
792291,12728,23452,7020,6294,26410,-15311
792303,12072,23488,6028,7337,27295,-14145
792315,8424,23280,4476,9174,28258,-12526
792327,5244,22436,5740,10399,29151,-14593
792339,4580,22836,4980,12106,28726,-15019
792351,3604,22452,4044,13193,28831,-13335
792363,976,20912,4676,13593,30223,-15769
792375,2072,22696,5116,14475,29992,-16175
792391,-648,22476,5328,16522,32767,-16129
792403,1260,22816,5920,18011,32767,-16026
792415,-408,20244,5408,18145,32767,-17120
792429,-1604,19224,4476,18840,32767,-18926
792441,-236,19376,1996,20217,32767,-19478
792453,776,19112,1692,20466,32767,-20019
792465,812,18816,1068,20103,29644,-19840
792477,552,17432,-404,19801,26473,-20483
792489,-1116,15792,-1708,19119,23775,-22597
792501,-1816,15180,-4040,18692,21284,-23724
792517,-2808,15916,-6268,19590,20117,-23390
792529,-3976,16184,-7652,21248,20714,-22460
792541,-5292,14436,-8504,23070,21396,-24370
792553,-5484,13740,-9196,24098,22914,-24417
792565,-5972,12868,-9544,26071,26083,-23695
792577,-5488,12484,-9012,28162,29529,-24181
792591,-3228,11776,-8396,29488,32767,-23670
792603,-1136,12524,-9628,30525,32767,-21269
792615,236,13520,-10300,31244,32767,-20622
792627,3512,13372,-10872,31133,32767,-20907
792643,7296,12200,-10036,30960,29341,-19559
792655,9824,10964,-11776,30855,27804,-18658
792667,13768,9352,-13060,31028,28036,-17643
