time_ms,acc_x_mg,acc_y_mg,acc_z_mg,gyro_x_mdps,gyro_y_mdps,gyro_z_mdps,mag_x_mgauss,mag_y_mgauss,mag_z_mgauss
1844,0.0005896613583900034,-0.0005806007538922131,0.0004335994890425354,-8.82034237292828e-06,6.079344530007802e-06,6.669012691418175e-06,-0.10506930202245712,0.05264928191900253,0.13312135636806488
1844,0.13575990498065948,-0.13524582982063293,0.10030476748943329,-0.002559528686106205,0.0019454038701951504,0.002679029479622841,-24.345340728759766,12.196267127990723,30.852861404418945
1844,0.9800658822059631,-0.9771313071250916,0.7214740514755249,-0.021956689655780792,0.019907113164663315,0.030839309096336365,-175.8531951904297,88.10292053222656,222.82887268066406
1844,2.6815361976623535,-2.643852949142456,1.9556077718734741,-0.05976865068078041,0.06486576795578003,0.0973263755440712,-481.3705749511719,241.21339416503906,609.7831420898438
1844,4.627987384796143,-4.526622295379639,3.364781141281128,-0.08527791500091553,0.10429635643959045,0.12948471307754517,-835.3096313476562,418.534423828125,1057.8671875
1844,6.083309173583984,-5.994068145751953,4.473591327667236,-0.08525662124156952,0.10586357116699219,0.08384612947702408,-1109.1053466796875,555.3655395507812,1404.3516845703125
1844,6.735503673553467,-6.737952709197998,5.041803359985352,-0.0673908069729805,0.08267556130886078,0.009477308951318264,-1240.7606201171875,620.6224975585938,1570.76708984375
1844,6.758955001831055,-6.812634468078613,5.0976996421813965,-0.031324855983257294,0.05186481028795242,-0.07264858484268188,-1248.5040283203125,623.739501953125,1580.2135009765625
1844,6.594505786895752,-6.4892964363098145,4.777060031890869,0.003311679232865572,0.03291523456573486,-0.1525631695985794,-1193.4622802734375,595.4603881835938,1510.099609375
1844,6.817202568054199,-5.966776371002197,4.002861022949219,-0.014337471686303616,0.058513954281806946,-0.21078811585903168,-1134.5159912109375,564.8070678710938,1434.9869384765625
1844,7.953829288482666,-5.400145530700684,2.7822718620300293,-0.12591195106506348,0.1880582720041275,-0.29958948493003845,-1102.3822021484375,545.3151245117188,1393.8397216796875
1844,9.60338020324707,-5.140498638153076,1.680872917175293,-0.35452231764793396,0.5903988480567932,-0.4527321755886078,-1095.9927978515625,536.5245971679688,1386.7196044921875
1844,10.276936531066895,-5.53924560546875,1.4905575513839722,-0.6501740217208862,1.3592387437820435,-0.6058583855628967,-1098.008056640625,538.77197265625,1394.9864501953125
1844,8.612495422363281,-6.509307861328125,2.642939329147339,-0.8401722311973572,2.262622117996216,-0.6426526308059692,-1098.155029296875,554.2633056640625,1404.7156982421875
1844,4.76059627532959,-7.409158229827881,4.838670253753662,-0.7746809720993042,2.750523805618286,-0.5758397579193115,-1096.724609375,577.7681884765625,1410.8104248046875
1844,0.6507720947265625,-7.598809719085693,7.1619391441345215,-0.46870023012161255,2.4289188385009766,-0.46758028864860535,-1096.5665283203125,599.5013427734375,1412.940673828125
1844,-1.5935781002044678,-6.817767143249512,8.549607276916504,-0.0888499915599823,1.429473638534546,-0.2861407995223999,-1098.5347900390625,612.6800537109375,1412.60302734375
1844,-1.0626344680786133,-5.288573741912842,8.419866561889648,0.19773836433887482,0.22547627985477448,-0.010147545486688614,-1101.3841552734375,616.7286376953125,1411.525146484375
1844,1.568329930305481,-3.7795848846435547,7.0983076095581055,0.27804744243621826,-0.7054073810577393,0.30339550971984863,-1103.6170654296875,615.4190063476562,1410.9766845703125
1844,4.643950462341309,-3.774254322052002,5.705933094024658,0.0816267654299736,-1.0590699911117554,0.5662243366241455,-1104.965576171875,613.2564086914062,1411.5823974609375
1844,6.682980060577393,-5.804299831390381,5.132768154144287,-0.2417001575231552,-0.8197837471961975,0.7062505483627319,-1105.96044921875,612.765625,1413.5025634765625
1844,7.237038612365723,-8.10710620880127,5.263094425201416,-0.40653103590011597,-0.25572624802589417,0.6315142512321472,-1106.646484375,614.03955078125,1416.0699462890625
1844,6.606524467468262,-8.62632942199707,5.541802883148193,-0.32118386030197144,0.335608571767807,0.4015234708786011,-1106.9483642578125,615.702392578125,1418.0394287109375
1844,5.278465747833252,-7.32606315612793,5.65797233581543,-0.21375051140785217,0.7848926186561584,0.32203131914138794,-1107.0718994140625,616.2904052734375,1418.847412109375
1844,3.825404405593872,-6.057621479034424,5.721651077270508,-0.3280119299888611,1.0287787914276123,0.6029894948005676,-1107.04248046875,615.1925048828125,1418.830078125
1844,2.6042861938476562,-6.292881488800049,5.864614486694336,-0.5852518081665039,1.0410507917404175,1.0227452516555786,-1106.6507568359375,612.9030151367188,1418.5697021484375
1844,1.8489844799041748,-7.683835983276367,5.977941036224365,-0.6942095160484314,0.805474042892456,1.1584830284118652,-1105.9508056640625,610.6077880859375,1418.433837890625
1844,1.7795400619506836,-8.746051788330078,5.91288948059082,-0.5129133462905884,0.4211328625679016,0.8893239498138428,-1105.24072265625,609.28564453125,1418.5357666015625
1844,2.1837592124938965,-8.663961410522461,5.676401615142822,-0.20085927844047546,0.07356397062540054,0.4413208067417145,-1104.72216796875,609.089599609375,1418.7698974609375
1844,2.669182062149048,-7.989494323730469,5.440424919128418,0.00044028181582689285,-0.10820870846509933,0.1209811195731163,-1104.5313720703125,609.4990234375,1419.0042724609375
1844,2.943547248840332,-7.45615816116333,5.336711406707764,0.012422595173120499,-0.09959907084703445,0.053598903119564056,-1104.5216064453125,609.8917236328125,1419.185302734375
1844,2.8646321296691895,-7.182219982147217,5.351773262023926,-0.11474111676216125,0.03338049724698067,0.14988742768764496,-1104.400146484375,609.9989013671875,1419.327392578125
1844,2.5041024684906006,-6.977060794830322,5.38015604019165,-0.32849758863449097,0.19079750776290894,0.300911545753479,-1104.0701904296875,609.740234375,1419.4853515625
1844,2.032684326171875,-6.691489219665527,5.2882585525512695,-0.6135274171829224,0.2793757915496826,0.4207048714160919,-1103.6572265625,608.9647216796875,1419.631591796875
1844,1.517151117324829,-6.5796589851379395,5.003513336181641,-1.0244418382644653,0.2563077211380005,0.49402061104774475,-1103.2852783203125,607.6636962890625,1419.5145263671875
1844,1.0113935470581055,-7.384308815002441,4.549901485443115,-1.5068765878677368,0.14244288206100464,0.5706173181533813,-1102.8653564453125,606.1807861328125,1418.7071533203125
1844,0.6573072075843811,-9.24930477142334,4.0069146156311035,-1.743367314338684,-0.045979827642440796,0.603830099105835,-1102.3826904296875,604.9315185546875,1417.0245361328125
1844,0.6791070699691772,-11.319380760192871,3.552976608276367,-1.4423208236694336,-0.2671911120414734,0.4585910141468048,-1102.3502197265625,603.9947509765625,1414.757080078125
1844,1.2004570960998535,-12.142627716064453,3.3049073219299316,-0.6886920928955078,-0.389125257730484,0.20132708549499512,-1103.717041015625,603.1036987304688,1412.7298583984375
3344,1.9337259531021118,-10.979744911193848,3.174412488937378,0.06853347271680832,-0.3253861963748932,0.017535656690597534,-1106.5753173828125,602.230712890625,1411.798095703125
3344,2.614866256713867,-8.58212661743164,3.0651323795318604,0.37221473455429077,-0.11304482817649841,-0.0012102564796805382,-1109.7633056640625,601.595947265625,1411.9580078125
3344,3.0372323989868164,-6.230801105499268,2.874131441116333,0.07971078902482986,0.15105445683002472,0.01073710061609745,-1111.4046630859375,601.4976806640625,1412.351806640625
3344,2.8262906074523926,-5.117363929748535,2.529038429260254,-0.6444543600082397,0.29343682527542114,-0.0939929336309433,-1110.2532958984375,602.6425170898438,1412.5616455078125
3344,1.9569907188415527,-6.1627326011657715,2.2564306259155273,-1.507716178894043,0.25270700454711914,-0.24196690320968628,-1106.83984375,605.380859375,1413.353271484375
3344,0.9116299748420715,-9.124903678894043,2.130019187927246,-2.090764284133911,0.15449286997318268,-0.2689949870109558,-1102.765625,609.101318359375,1415.5247802734375
3344,0.4601815938949585,-11.844034194946289,1.8022990226745605,-2.0330379009246826,0.045151740312576294,-0.1667119264602661,-1099.5491943359375,612.7200317382812,1418.6435546875
3344,0.7938991785049438,-12.694086074829102,1.2210164070129395,-1.4179365634918213,0.028838813304901123,0.025971975177526474,-1097.70166015625,615.510498046875,1421.701416015625
3344,1.1913927793502808,-11.97989273071289,0.5880883932113647,-0.5904796123504639,0.10510715842247009,0.1336609125137329,-1096.6334228515625,617.254638671875,1423.9178466796875
3344,1.372536063194275,-10.80723762512207,0.041600584983825684,0.028479069471359253,0.13853690028190613,0.05520370230078697,-1095.9169921875,618.2207641601562,1425.0228271484375
3344,1.6742722988128662,-9.892026901245117,-0.2029585838317871,0.2212834656238556,0.08834737539291382,-0.08895241469144821,-1095.5552978515625,618.8143310546875,1425.3411865234375
3344,1.9497491121292114,-9.524520874023438,-0.07143640518188477,0.050932034850120544,0.046268709003925323,-0.11360051482915878,-1095.4296875,619.114013671875,1425.4654541015625
3344,1.918346643447876,-9.70707893371582,0.21304535865783691,-0.3567749857902527,0.20018741488456726,0.20293593406677246,-1095.2022705078125,618.8016357421875,1426.0240478515625
3344,1.6074740886688232,-9.872025489807129,0.28819429874420166,-0.8219926953315735,0.5880800485610962,0.7975686192512512,-1094.38671875,617.6815795898438,1427.417236328125
3344,1.1458373069763184,-9.718628883361816,0.12778353691101074,-0.9991886615753174,1.0015625953674316,1.0455137491226196,-1093.289306640625,615.978271484375,1429.439453125
3344,0.7080525159835815,-9.600519180297852,-0.08413076400756836,-0.8160069584846497,1.248803734779358,0.7010830640792847,-1092.7486572265625,614.1939697265625,1431.52001953125
3344,0.4042518734931946,-9.790336608886719,-0.35135018825531006,-0.4643666744232178,1.249630331993103,0.11429566144943237,-1093.163330078125,612.7745361328125,1433.1715087890625
3344,0.40199708938598633,-10.063071250915527,-0.7873334884643555,-0.08285593241453171,0.930223286151886,-0.3414151668548584,-1094.37158203125,611.9122314453125,1434.132568359375
3344,0.9728764295578003,-10.1624755859375,-1.114479422569275,0.24082404375076294,0.38144201040267944,-0.49177244305610657,-1095.8660888671875,611.423583984375,1434.31787109375
3344,1.708086609840393,-10.227424621582031,-0.8676751852035522,0.4546733796596527,-0.158013254404068,-0.37298327684402466,-1097.230712890625,611.020751953125,1433.8841552734375
3344,1.8496203422546387,-9.971884727478027,-0.12515747547149658,0.578300952911377,-0.5911543369293213,-0.19420965015888214,-1098.35302734375,610.5906982421875,1433.05126953125
3344,1.2436856031417847,-9.278178215026855,0.59417325258255,0.585499107837677,-0.853161633014679,-0.1561667025089264,-1099.285400390625,610.1746215820312,1431.937255859375
3344,0.8004374504089355,-8.90876293182373,0.922439694404602,0.45416033267974854,-0.8204003572463989,-0.26462650299072266,-1100.1971435546875,609.9068603515625,1430.6241455078125
3344,1.013606309890747,-9.165393829345703,0.7404012084007263,0.3025331199169159,-0.5146452188491821,-0.3910112679004669,-1101.0316162109375,609.9010009765625,1429.17041015625
3344,1.458509922027588,-9.544312477111816,0.21072375774383545,0.22957967221736908,-0.09061282873153687,-0.3734627068042755,-1101.5638427734375,610.1600341796875,1427.6978759765625
3344,1.8273217678070068,-9.771490097045898,-0.02946913242340088,0.30488258600234985,0.2990022599697113,-0.3198733925819397,-1101.77685546875,610.5931396484375,1426.425048828125
3344,2.0691418647766113,-9.781224250793457,0.3379960060119629,0.4643230140209198,0.5966199636459351,-0.3103853762149811,-1101.7327880859375,611.1538696289062,1425.42333984375
3344,2.0382797718048096,-9.829917907714844,0.8040087223052979,0.4586445093154907,0.6942354440689087,-0.1701659858226776,-1101.183837890625,611.938720703125,1424.740234375
3344,1.8249379396438599,-10.052999496459961,0.9206024408340454,0.2860752046108246,0.5313785076141357,0.18562009930610657,-1099.7830810546875,612.96826171875,1424.454345703125
3344,1.61290442943573,-10.285894393920898,0.6774939894676208,0.08237749338150024,0.25504037737846375,0.6744019985198975,-1097.632080078125,613.9501342773438,1424.48388671875
3344,1.249279499053955,-10.645118713378906,0.24135160446166992,-0.07910526543855667,0.02558840811252594,1.1680558919906616,-1095.3140869140625,614.4197998046875,1424.68212890625
3344,0.7767341136932373,-10.763154983520508,-0.013583898544311523,-0.08722938597202301,-0.10784855484962463,1.4640334844589233,-1093.6807861328125,613.9342651367188,1424.6561279296875
3344,0.39181947708129883,-10.175944328308105,0.3974088430404663,0.038717351853847504,-0.07137879729270935,1.439606785774231,-1093.53662109375,612.2830810546875,1423.96142578125
3344,0.009665489196777344,-9.214826583862305,1.187530517578125,0.16201336681842804,0.07957528531551361,1.1277625560760498,-1094.911376953125,609.7446899414062,1422.7576904296875
3344,-0.431640625,-8.666105270385742,1.631612777709961,0.203989177942276,0.1993890106678009,0.6547476053237915,-1096.861572265625,607.1015625,1421.733154296875
3344,-0.7621344327926636,-8.842686653137207,1.609270453453064,0.1824074685573578,0.2197829931974411,0.2286606729030609,-1098.4464111328125,604.9437255859375,1421.3699951171875
3344,-0.9033946394920349,-9.441110610961914,1.3708549737930298,0.12989090383052826,0.16716375946998596,0.05390169471502304,-1099.1572265625,603.500244140625,1421.418212890625
3344,-0.9633158445358276,-10.00240707397461,1.0982565879821777,0.09108297526836395,0.1091565415263176,0.13446374237537384,-1098.989501953125,602.8826904296875,1421.1007080078125
3344,-0.9976344704627991,-10.22715950012207,0.9532132744789124,0.13020572066307068,0.07650947570800781,0.2718649208545685,-1098.459228515625,602.92041015625,1419.482421875
4845,-1.1257528066635132,-10.126763343811035,1.0778355598449707,0.25446727871894836,0.04952411353588104,0.322140097618103,-1097.9251708984375,603.298095703125,1416.2286376953125
4845,-1.4720351696014404,-9.771459579467773,1.4836236238479614,0.41486823558807373,-0.019156647846102715,0.2899821996688843,-1097.302734375,603.6580810546875,1411.768310546875
4845,-1.7093441486358643,-8.980737686157227,1.9883722066879272,0.5019305348396301,-0.15080919861793518,0.19449137151241302,-1096.8673095703125,603.3475341796875,1407.0206298828125
4845,-1.5356539487838745,-8.230110168457031,2.309516191482544,0.3821882903575897,-0.2985388934612274,0.021389171481132507,-1097.1298828125,602.2244873046875,1403.6407470703125
4845,-0.9353214502334595,-8.30981159210205,2.3979263305664062,0.04849707707762718,-0.3360811471939087,-0.04814881086349487,-1097.8154296875,601.0009765625,1402.8131103515625
4845,-0.3432316780090332,-9.34608268737793,2.2385470867156982,-0.3954450488090515,-0.20007774233818054,0.20153695344924927,-1097.594970703125,600.91845703125,1404.2359619140625
4845,-0.15420174598693848,-10.433011054992676,1.9009381532669067,-0.6162699460983276,0.0065631866455078125,0.4844007194042206,-1095.2408447265625,602.8671264648438,1406.295166015625
4845,-0.4002213478088379,-10.506178855895996,1.5195086002349854,-0.3845933675765991,0.13564857840538025,0.29738637804985046,-1090.97900390625,606.5184326171875,1407.365478515625
4845,-1.0169626474380493,-9.639486312866211,1.2028799057006836,0.09193717688322067,0.06063660979270935,-0.3847064673900604,-1086.54150390625,610.654541015625,1407.3284912109375
4845,-1.786612868309021,-8.691311836242676,1.0210758447647095,0.37188610434532166,-0.2785835862159729,-1.1014635562896729,-1083.973876953125,614.040771484375,1407.293701171875
4845,-2.3408398628234863,-8.407596588134766,0.9639589786529541,0.20744183659553528,-0.7253549098968506,-1.4353811740875244,-1084.285888671875,616.0069580078125,1408.254638671875
4845,-2.0657968521118164,-8.910327911376953,1.020004153251648,-0.316570520401001,-1.0379352569580078,-1.2808552980422974,-1087.078857421875,616.6007080078125,1410.338134765625
4845,-0.7323061227798462,-9.884997367858887,1.038245439529419,-0.8621609210968018,-1.128360629081726,-0.8081105351448059,-1090.9332275390625,616.2980346679688,1412.952392578125
4845,1.2320438623428345,-10.899698257446289,0.8237085342407227,-1.1205910444259644,-0.9665100574493408,-0.23758430778980255,-1094.2139892578125,615.66162109375,1415.277587890625
4845,2.750119209289551,-11.314509391784668,0.4518774747848511,-0.9747326970100403,-0.5310955047607422,0.1505587100982666,-1096.0145263671875,615.14111328125,1416.75732421875
4845,2.584261417388916,-10.86162281036377,0.20079421997070312,-0.5512722134590149,0.04973701387643814,0.2008248269557953,-1096.2640380859375,614.9716796875,1417.4393310546875
4845,1.1117602586746216,-10.037909507751465,0.15240788459777832,-0.1078132688999176,0.4620514512062073,-0.003901798278093338,-1095.4791259765625,615.2413940429688,1417.4278564453125
4845,-0.2338649034500122,-9.50981330871582,0.21820282936096191,0.19120298326015472,0.5672261118888855,-0.22508664429187775,-1094.3177490234375,615.9705810546875,1416.7119140625
4845,-0.7731467485427856,-9.394657135009766,0.40378236770629883,0.33720141649246216,0.4794889986515045,-0.30522871017456055,-1093.1939697265625,617.0799560546875,1415.3016357421875
4845,-0.6252778768539429,-9.397073745727539,0.6906676888465881,0.31421223282814026,0.4204707741737366,-0.18869031965732574,-1092.1083984375,618.545166015625,1413.46728515625
4845,-0.1376943588256836,-9.44129467010498,0.8570443391799927,0.0424291267991066,0.5749187469482422,0.1866474747657776,-1090.675048828125,620.302490234375,1412.1094970703125
4845,0.40882885456085205,-9.6088285446167,0.6791291832923889,-0.38656261563301086,0.8563399910926819,0.6457598209381104,-1088.60693359375,622.02099609375,1412.0828857421875
4845,0.7672938108444214,-9.79055404663086,0.25146234035491943,-0.6801481246948242,0.999521791934967,0.7606282234191895,-1086.209716796875,623.3243408203125,1413.4930419921875
4845,0.7862032055854797,-9.8541898727417,-0.16568613052368164,-0.6273243427276611,0.8604637384414673,0.3515825569629669,-1084.5455322265625,624.0517578125,1415.6146240234375
4845,0.6276521682739258,-9.871357917785645,-0.40490031242370605,-0.293856680393219,0.48287028074264526,-0.30375736951828003,-1084.5054931640625,624.30224609375,1417.3106689453125
4845,0.498704731464386,-9.919661521911621,-0.41199779510498047,0.07924476265907288,0.06284661591053009,-0.7679436802864075,-1085.895751953125,624.3157958984375,1417.817138671875
4845,0.4879518747329712,-9.878708839416504,-0.24345088005065918,0.35532501339912415,-0.23684078454971313,-0.9163098335266113,-1087.8544921875,624.5325317382812,1417.0042724609375
4845,0.581861674785614,-9.74931812286377,0.014920234680175781,0.49798932671546936,-0.3695874512195587,-0.8642906546592712,-1089.778076171875,625.5797119140625,1415.332763671875
4845,0.7293856143951416,-9.61308479309082,0.2954723834991455,0.4618392586708069,-0.3588317036628723,-0.7049074172973633,-1091.502197265625,628.0693359375,1413.6531982421875
4845,0.9101592898368835,-9.500535011291504,0.47044968605041504,0.21708089113235474,-0.23148879408836365,-0.45577672123908997,-1093.1685791015625,632.35498046875,1413.1573486328125
4845,1.2475682497024536,-9.494022369384766,0.42241543531417847,-0.11976053565740585,-0.1043211966753006,-0.21886378526687622,-1095.153076171875,637.81640625,1414.73779296875
4845,1.7064772844314575,-9.645770072937012,0.20747220516204834,-0.3344268202781677,-0.1196039542555809,-0.1468563824892044,-1097.7335205078125,642.878173828125,1418.1539306640625
4845,2.0819122791290283,-9.875314712524414,-0.007900714874267578,-0.3357418179512024,-0.2731381058692932,-0.21291299164295197,-1100.9232177734375,645.9776000976562,1422.265380859375
4845,2.2522034645080566,-10.006617546081543,-0.11209189891815186,-0.19553035497665405,-0.44488853216171265,-0.2778112292289734,-1104.3177490234375,646.516845703125,1425.841064453125
4845,2.257256031036377,-9.97495174407959,-0.11167001724243164,-0.0262615866959095,-0.5141423940658569,-0.27004867792129517,-1107.3167724609375,645.2161865234375,1428.078369140625
4845,2.1564390659332275,-9.859097480773926,-0.08246219158172607,0.10710695385932922,-0.4544029235839844,-0.22447240352630615,-1109.4874267578125,643.41015625,1428.8883056640625
4845,2.0390610694885254,-9.764102935791016,-0.05737745761871338,0.16573339700698853,-0.34126874804496765,-0.16554732620716095,-1110.882080078125,642.32373046875,1428.7864990234375
4845,1.969974160194397,-9.697118759155273,-0.020576834678649902,0.1332397609949112,-0.2311769723892212,-0.0717221051454544,-1111.822998046875,642.611083984375,1428.503173828125
4845,1.9756200313568115,-9.620407104492188,0.019484877586364746,0.03913216292858124,-0.1169840469956398,0.058276765048503876,-1112.6134033203125,644.1884765625,1428.54931640625
6346,2.005882740020752,-9.576078414916992,0.038481950759887695,-0.07100648432970047,-0.008456863462924957,0.1815347522497177,-1113.274658203125,646.3302001953125,1429.0108642578125
6346,1.9449855089187622,-9.65267562866211,0.021026611328125,-0.2229321002960205,0.11857988685369492,0.36300408840179443,-1113.446044921875,648.2073974609375,1429.749755859375
6346,1.674577236175537,-9.7076416015625,-0.0790400505065918,-0.40694084763526917,0.3021007478237152,0.6256664395332336,-1112.5631103515625,649.332275390625,1430.8565673828125
6346,1.2671592235565186,-9.600067138671875,-0.2678499221801758,-0.3726821541786194,0.4007096588611603,0.6059966683387756,-1111.1044921875,649.51318359375,1432.1328125
6346,1.1163251399993896,-9.450398445129395,-0.43310225009918213,0.08374917507171631,0.17007875442504883,0.0012165699154138565,-1110.9539794921875,648.5059814453125,1432.59423828125
6346,1.5005203485488892,-9.430614471435547,-0.3415478467941284,0.710993230342865,-0.3493756055831909,-0.8534107208251953,-1113.5633544921875,646.1454467773438,1431.4517822265625
6346,2.2169957160949707,-9.523798942565918,0.022382140159606934,1.0324044227600098,-0.7304191589355469,-1.291724681854248,-1118.2288818359375,642.8592529296875,1429.191650390625
6346,2.8354382514953613,-9.616690635681152,0.38468408584594727,0.8294538855552673,-0.6768397688865662,-1.005953311920166,-1122.6767578125,639.7020263671875,1427.1466064453125
6346,3.043166399002075,-9.646036148071289,0.536788821220398,0.31178730726242065,-0.3379659056663513,-0.29634612798690796,-1125.068359375,637.6982421875,1426.2952880859375
6346,2.8127288818359375,-9.629133224487305,0.5020747184753418,-0.15047985315322876,-0.022067509591579437,0.3254834711551666,-1125.160888671875,637.2572021484375,1426.743896484375
6346,2.387641668319702,-9.579314231872559,0.40369272232055664,-0.34281983971595764,0.10962286591529846,0.5751816630363464,-1124.0286865234375,638.0692138671875,1427.947265625
6346,2.096989393234253,-9.490678787231445,0.3146573305130005,-0.2720905840396881,0.07241348922252655,0.4560384154319763,-1123.1168212890625,639.1397705078125,1429.14453125
6346,2.085230827331543,-9.433571815490723,0.2688244581222534,-0.0670325756072998,-0.03985828906297684,0.14048118889331818,-1123.17724609375,639.5628662109375,1429.7955322265625
6346,2.242352247238159,-9.463966369628906,0.29036593437194824,0.12841980159282684,-0.13013681769371033,-0.1588393896818161,-1124.0067138671875,639.156982421875,1429.745361328125
6346,2.4010512828826904,-9.515049934387207,0.384576678276062,0.222456693649292,-0.14999938011169434,-0.30069562792778015,-1125.0076904296875,638.2953491210938,1429.2181396484375
6346,2.539158821105957,-9.510472297668457,0.5027215480804443,0.1969141960144043,-0.09508881717920303,-0.2522859275341034,-1125.563232421875,637.4102783203125,1428.4649658203125
6346,2.6347570419311523,-9.544748306274414,0.5460433959960938,0.09465643763542175,0.029023725539445877,-0.06504062563180923,-1125.3922119140625,636.696533203125,1427.783447265625
6346,2.5702266693115234,-9.674047470092773,0.4477628469467163,0.004808911122381687,0.14768953621387482,0.14864632487297058,-1124.5242919921875,636.3902587890625,1427.466552734375
6346,2.365445137023926,-9.763338088989258,0.28811943531036377,0.02395373024046421,0.0548526830971241,0.1854456067085266,-1123.4129638671875,636.6329345703125,1427.5439453125
6346,2.2083802223205566,-9.761542320251465,0.2497011423110962,0.1489577740430832,-0.3470746576786041,-0.0216531939804554,-1122.8914794921875,637.1353759765625,1427.759033203125
6346,2.2617621421813965,-9.668584823608398,0.3852250576019287,0.2406144142150879,-0.7622196674346924,-0.22261498868465424,-1123.3643798828125,637.61962890625,1427.927734375
6346,2.4479944705963135,-9.504018783569336,0.5344961881637573,0.18758994340896606,-0.8574973940849304,-0.2021966576576233,-1124.3809814453125,638.0200805664062,1428.1495361328125
6346,2.574596405029297,-9.386862754821777,0.5703556537628174,0.028175584971904755,-0.6386448740959167,-0.009580686688423157,-1125.1129150390625,638.2359619140625,1428.506103515625
6346,2.5506269931793213,-9.384841918945312,0.5187770128250122,-0.12034367769956589,-0.3074900507926941,0.19481965899467468,-1124.9364013671875,638.0369262695312,1428.906494140625
6346,2.4331319332122803,-9.443449020385742,0.4360511302947998,-0.18008843064308167,-0.024292945861816406,0.3038182556629181,-1123.8441162109375,637.2701416015625,1429.1787109375
6346,2.3030264377593994,-9.510979652404785,0.3347134590148926,-0.14384853839874268,0.13758134841918945,0.2955208122730255,-1122.276123046875,636.0946044921875,1429.3367919921875
6346,2.2137770652770996,-9.568264961242676,0.25928187370300293,-0.035731203854084015,0.155534029006958,0.1987551599740982,-1120.8763427734375,634.9652099609375,1429.3974609375
6346,2.203242778778076,-9.604820251464844,0.2521834373474121,0.08475387096405029,0.07070473581552505,0.08038021624088287,-1120.083740234375,634.1922607421875,1429.2275390625
6346,2.2208757400512695,-9.632770538330078,0.3113056421279907,0.15960508584976196,-0.03275051340460777,-0.008354234509170055,-1119.934814453125,633.8201904296875,1428.8917236328125
6346,2.2273898124694824,-9.662592887878418,0.3953878879547119,0.16524900496006012,-0.08206527680158615,-0.03453982621431351,-1120.2322998046875,633.7430419921875,1428.52783203125
6346,2.215684652328491,-9.66616439819336,0.46588289737701416,0.11218158900737762,-0.06078387424349785,0.01274472288787365,-1120.6427001953125,633.786865234375,1428.2659912109375
6346,2.1855688095092773,-9.6314058303833,0.4990431070327759,0.03022092953324318,-0.006324119865894318,0.09466583281755447,-1120.8309326171875,633.93017578125,1428.1556396484375
6346,2.1468911170959473,-9.594867706298828,0.4966522455215454,-0.04769282788038254,0.04097527265548706,0.16011393070220947,-1120.68212890625,634.1287231445312,1428.2230224609375
6346,2.097834587097168,-9.578312873840332,0.47818684577941895,-0.09553807228803635,0.06668855249881744,0.19427886605262756,-1120.32373046875,634.3458251953125,1428.413818359375
6346,2.0264060497283936,-9.594314575195312,0.4545435905456543,-0.09915810078382492,0.07152575254440308,0.20834335684776306,-1119.835693359375,634.528564453125,1428.7103271484375
6346,1.9354939460754395,-9.637154579162598,0.41006600856781006,-0.06011126935482025,0.058327484875917435,0.21441468596458435,-1119.174072265625,634.7191162109375,1429.027099609375
6346,1.8139410018920898,-9.702733039855957,0.35657835006713867,0.0009531826362945139,0.02968835085630417,0.20327408611774445,-1118.474853515625,634.982666015625,1429.209228515625
6346,1.7103025913238525,-9.724367141723633,0.3532695770263672,0.05634048953652382,-0.006449192762374878,0.1611565351486206,-1117.943603515625,635.3189697265625,1429.1815185546875
6346,1.6796603202819824,-9.694293022155762,0.3966074585914612,0.08120612800121307,-0.034245919436216354,0.09371592849493027,-1117.70947265625,635.55078125,1429.06884765625
7847,1.692906379699707,-9.679243087768555,0.4455944895744324,0.06995987892150879,-0.03969883546233177,0.035654135048389435,-1117.7071533203125,635.54541015625,1428.985107421875
7847,1.7116588354110718,-9.661077499389648,0.47295600175857544,0.03392989560961723,-0.01910361833870411,0.00949429627507925,-1117.8389892578125,635.4828491210938,1428.9410400390625
7847,1.7058777809143066,-9.672947883605957,0.470234751701355,-0.0037200634833425283,0.008229201659560204,0.003560326062142849,-1117.9710693359375,635.4888916015625,1428.945556640625
7847,1.68971586227417,-9.689188957214355,0.4612099528312683,-0.023708492517471313,0.02725578099489212,0.0073847295716404915,-1118.0020751953125,635.5537109375,1428.99560546875
7847,1.6790552139282227,-9.69504451751709,0.4572599530220032,-0.025571156293153763,0.03737425431609154,0.014707890339195728,-1117.8861083984375,635.5684814453125,1429.059814453125
7847,1.672318696975708,-9.70556354522705,0.45168477296829224,-0.017140788957476616,0.03592187166213989,0.024515990167856216,-1117.764892578125,635.5687866210938,1429.0943603515625
7847,1.6614434719085693,-9.710025787353516,0.4521668553352356,-0.009147132746875286,0.025325322523713112,0.03987452760338783,-1117.70703125,635.6068115234375,1429.1304931640625
7847,1.640704870223999,-9.716174125671387,0.4615243673324585,-0.012099486775696278,0.01688602939248085,0.06388995796442032,-1117.6839599609375,635.717529296875,1429.1463623046875
7847,1.6168103218078613,-9.728708267211914,0.45814257860183716,-0.027819005772471428,0.021998915821313858,0.10249108821153641,-1117.6492919921875,635.8773193359375,1429.0880126953125
7847,1.568946123123169,-9.727168083190918,0.4389341473579407,-0.035494741052389145,0.04202427715063095,0.130590558052063,-1117.536376953125,636.041259765625,1428.977294921875
7847,1.4978300333023071,-9.710491180419922,0.4133363366127014,-0.006008140742778778,0.06531903147697449,0.08719593286514282,-1117.34765625,636.18798828125,1428.884765625
7847,1.498802661895752,-9.77469253540039,0.36990153789520264,0.11399728804826736,0.037361178547143936,-0.10049336403608322,-1117.494384765625,636.338134765625,1428.763427734375
7847,1.679399013519287,-9.98710823059082,0.4041348695755005,0.4061749279499054,-0.10734175145626068,-0.459486722946167,-1118.6240234375,636.7890625,1428.33251953125
7847,2.0309534072875977,-9.973017692565918,0.6779993772506714,0.8261361122131348,-0.28120487928390503,-0.8667488098144531,-1121.322021484375,638.2928466796875,1427.1412353515625
7847,2.387606143951416,-9.541718482971191,1.152182936668396,1.0832234621047974,-0.3014957904815674,-1.0542274713516235,-1125.29052734375,641.224609375,1424.9556884765625
7847,2.587843894958496,-9.141422271728516,1.612062692642212,0.9254434704780579,-0.0860387533903122,-0.799429714679718,-1129.064453125,645.0029296875,1422.356689453125
7847,2.658381223678589,-9.059236526489258,1.8543226718902588,0.4229947328567505,0.25313398241996765,-0.18299360573291779,-1131.3338623046875,648.850830078125,1420.393310546875
7847,2.5831313133239746,-9.22574234008789,1.8432121276855469,-0.13780823349952698,0.5317702293395996,0.4826582372188568,-1131.5126953125,652.1732177734375,1419.826416015625
7847,2.350573778152466,-9.482454299926758,1.6633882522583008,-0.49816539883613586,0.6303013563156128,0.917072057723999,-1129.8189697265625,654.5213623046875,1420.80029296875
7847,2.030832529067993,-9.621077537536621,1.4648913145065308,-0.5571529865264893,0.5476386547088623,1.0009709596633911,-1127.11767578125,655.5299682617188,1422.721923828125
7847,1.664223313331604,-9.581247329711914,1.3470582962036133,-0.39710912108421326,0.3661333918571472,0.7983785271644592,-1124.3388671875,655.19921875,1424.7532958984375
7847,1.343564748764038,-9.485648155212402,1.3145298957824707,-0.16894549131393433,0.17518430948257446,0.4600563943386078,-1122.179931640625,654.081298828125,1426.2498779296875
7847,1.1580314636230469,-9.422029495239258,1.3447130918502808,0.008796394802629948,0.03685908019542694,0.13518287241458893,-1121.03564453125,652.821533203125,1426.917236328125
7847,1.121938943862915,-9.429723739624023,1.3909592628479004,0.07835938036441803,-0.02881505899131298,-0.07181022316217422,-1120.8841552734375,651.705078125,1426.8787841796875
7847,1.1855390071868896,-9.490097045898438,1.4090766906738281,0.05276675522327423,-0.049319252371788025,-0.14125917851924896,-1121.3355712890625,650.6287231445312,1426.529052734375
7847,1.2919092178344727,-9.585402488708496,1.3890403509140015,-0.013373859226703644,-0.060501404106616974,-0.11940410733222961,-1121.9105224609375,649.411865234375,1426.1890869140625
7847,1.4021764993667603,-9.688841819763184,1.3464640378952026,-0.06724914908409119,-0.06788608431816101,-0.0684913843870163,-1122.387451171875,648.0708618164062,1426.0875244140625
7847,1.4995462894439697,-9.764094352722168,1.2982029914855957,-0.08046172559261322,-0.06621170789003372,-0.03801345452666283,-1122.761474609375,646.8560791015625,1426.3231201171875
7847,1.5788769721984863,-9.795500755310059,1.263397455215454,-0.059954628348350525,-0.05118507146835327,-0.024807710200548172,-1123.081298828125,646.0179443359375,1426.740234375
7847,1.6013076305389404,-9.786479949951172,1.2487448453903198,-0.028450746089220047,-0.019966911524534225,-0.00020829029381275177,-1123.3016357421875,645.6851196289062,1427.067138671875
7847,1.565096378326416,-9.76427936553955,1.249812126159668,0.010657447390258312,0.01425323635339737,0.025322049856185913,-1123.34228515625,645.8118896484375,1427.1182861328125
7847,1.539926290512085,-9.751934051513672,1.2585711479187012,0.08170125633478165,0.02893885225057602,0.01092461310327053,-1123.275146484375,646.2076416015625,1426.818359375
7847,1.512155532836914,-9.66885757446289,1.282782793045044,0.21877095103263855,-0.014190791174769402,-0.12132427841424942,-1123.4022216796875,646.72509765625,1426.0789794921875
7847,1.5034371614456177,-9.440845489501953,1.3380707502365112,0.3280704915523529,-0.18916362524032593,-0.4763742983341217,-1124.3775634765625,646.9840698242188,1425.1474609375
7847,1.7217903137207031,-9.258708953857422,1.433767318725586,0.27460554242134094,-0.43770626187324524,-1.0149199962615967,-1126.7528076171875,646.4818115234375,1424.5899658203125
7847,2.2476093769073486,-9.240289688110352,1.5793856382369995,0.09449172019958496,-0.5820184350013733,-1.4351316690444946,-1130.29736328125,645.0223388671875,1424.673828125
7847,2.901397228240967,-9.330248832702637,1.6624315977096558,-0.18254569172859192,-0.5134632587432861,-1.4014121294021606,-1134.194091796875,643.0474853515625,1425.38720703125
7847,3.4246835708618164,-9.40308666229248,1.5463436841964722,-0.41210705041885376,-0.25537073612213135,-0.9349969029426575,-1137.4737548828125,641.384521484375,1426.6826171875
7847,3.7054619789123535,-9.344941139221191,1.2876851558685303,-0.4363878071308136,0.049715716391801834,-0.3935859799385071,-1139.5753173828125,640.5299072265625,1428.14501953125
9348,3.777893543243408,-9.178093910217285,1.028265118598938,-0.2811879813671112,0.2691703140735626,-0.05801010876893997,-1140.606689453125,640.4903564453125,1429.2054443359375
9348,3.744948625564575,-8.948930740356445,0.878299355506897,-0.1328888237476349,0.32916736602783203,-0.012743126600980759,-1140.9793701171875,640.8589477539062,1429.626708984375
9348,3.6332483291625977,-8.823572158813477,0.8527283668518066,-0.19965720176696777,0.2689041495323181,-0.12460359930992126,-1141.0689697265625,641.048095703125,1429.71044921875
9348,3.553758382797241,-8.918476104736328,0.8472764492034912,-0.3743307590484619,0.1747623234987259,-0.19916044175624847,-1141.0479736328125,640.7659912109375,1429.925537109375
9348,3.56990647315979,-9.110281944274902,0.790981650352478,-0.44046783447265625,0.10489490628242493,-0.18088874220848083,-1141.0023193359375,640.1383666992188,1430.47216796875
9348,3.6861989498138428,-9.238869667053223,0.7254918813705444,-0.2731848359107971,0.0864843875169754,-0.16641242802143097,-1141.1356201171875,639.3780517578125,1431.035888671875
9348,3.8660614490509033,-9.2373628616333,0.7242554426193237,0.05217834562063217,0.12793748080730438,-0.22093340754508972,-1141.6614990234375,638.58544921875,1431.020751953125
9348,4.054922103881836,-9.133952140808105,0.803734302520752,0.3280668556690216,0.18278074264526367,-0.28748711943626404,-1142.508056640625,637.7254028320312,1430.1048583984375
9348,4.198685646057129,-8.993497848510742,0.9366376399993896,0.4256841540336609,0.18925504386425018,-0.3075837194919586,-1143.3653564453125,636.9368286132812,1428.606201171875
9348,4.276386737823486,-8.875293731689453,1.0846209526062012,0.35371145606040955,0.13854435086250305,-0.27355724573135376,-1143.982421875,636.274658203125,1427.201904296875
9348,4.296957015991211,-8.796402931213379,1.2108047008514404,0.2123536467552185,0.08130727708339691,-0.24834240972995758,-1144.3670654296875,635.657470703125,1426.254150390625
9348,4.278219223022461,-8.748941421508789,1.26811945438385,0.032389841973781586,0.09846797585487366,-0.26527833938598633,-1144.748046875,634.9281616210938,1425.7733154296875
9348,4.252274036407471,-8.763334274291992,1.209702968597412,-0.21992088854312897,0.1469881385564804,-0.18211603164672852,-1145.0477294921875,634.2005615234375,1425.82080078125
9348,4.240861415863037,-8.817849159240723,1.0917984247207642,-0.42899906635284424,0.10869894176721573,0.0011004088446497917,-1145.022705078125,633.78564453125,1426.43359375
9348,4.302554607391357,-8.9039945602417,0.9864243268966675,-0.4867521822452545,0.005808189511299133,0.19230647385120392,-1144.718017578125,633.56494140625,1427.4114990234375
9348,4.355603218078613,-8.986754417419434,0.9002128839492798,-0.41464483737945557,-0.03834999352693558,0.3519250750541687,-1144.2408447265625,633.4039306640625,1428.3955078125
9348,4.267916679382324,-9.010290145874023,0.8015642166137695,-0.2775862216949463,0.014047987759113312,0.4265933036804199,-1143.5894775390625,633.3648681640625,1429.0645751953125
9348,4.071009635925293,-8.99227523803711,0.7133817672729492,-0.12680189311504364,0.07765604555606842,0.36426880955696106,-1142.8641357421875,633.4945068359375,1429.338134765625
9348,3.891958713531494,-8.990523338317871,0.6517560482025146,-0.008158461190760136,0.0903225913643837,0.2065940648317337,-1142.2886962890625,633.7311401367188,1429.3355712890625
9348,3.7811360359191895,-9.016402244567871,0.6025896072387695,0.056960009038448334,0.02384316176176071,0.03612085431814194,-1142.0418701171875,633.9827880859375,1429.203125
9348,3.7361912727355957,-9.05517864227295,0.5437929630279541,0.07784359157085419,-0.12841558456420898,-0.09007754921913147,-1142.270751953125,634.2452392578125,1428.952880859375
9348,3.785557508468628,-9.084888458251953,0.508641242980957,0.06680940091609955,-0.3415454626083374,-0.14203207194805145,-1142.909912109375,634.39013671875,1428.6134033203125
9348,3.9312572479248047,-9.093791961669922,0.5143489837646484,0.019199974834918976,-0.5224349498748779,-0.10484269261360168,-1143.774169921875,634.3180541992188,1428.4014892578125
9348,4.081973075866699,-9.068547248840332,0.5602842569351196,-0.048958390951156616,-0.5726512670516968,-0.010196611285209656,-1144.723876953125,634.2392578125,1428.48486328125
9348,4.148890018463135,-9.037588119506836,0.5686362981796265,-0.09788411855697632,-0.46351900696754456,0.07371482998132706,-1145.605712890625,634.407958984375,1428.8564453125
9348,4.126313209533691,-9.035560607910156,0.508965015411377,-0.09420560300350189,-0.2677651345729828,0.09321890771389008,-1146.3878173828125,634.84619140625,1429.38232421875
9348,4.051891803741455,-9.041481018066406,0.42319297790527344,-0.03989440202713013,-0.08995093405246735,0.04736599698662758,-1147.253662109375,635.3802490234375,1429.908203125
9348,3.9822959899902344,-9.034602165222168,0.3564518690109253,0.03127388656139374,0.0009434651583433151,-0.024303626269102097,-1148.27197265625,635.80615234375,1430.3045654296875
9348,3.9537429809570312,-9.020964622497559,0.3367263078689575,0.0845392644405365,0.0020035356283187866,-0.08200373500585556,-1149.3843994140625,635.9993896484375,1430.60693359375
9348,3.967959403991699,-8.983853340148926,0.36810386180877686,0.10286220908164978,-0.03983265161514282,-0.10470100492238998,-1150.4093017578125,635.8450927734375,1430.8818359375
9348,4.014353275299072,-8.948043823242188,0.41580474376678467,0.08704453706741333,-0.07476799190044403,-0.09295746684074402,-1151.0479736328125,635.3753662109375,1431.0047607421875
9348,4.069849491119385,-8.94339370727539,0.44274330139160156,0.05342467874288559,-0.08231239020824432,-0.06423121690750122,-1151.2215576171875,634.8513793945312,1430.8607177734375
9348,4.112272262573242,-8.960236549377441,0.4433244466781616,0.020706329494714737,-0.06717289239168167,-0.03703923523426056,-1151.04150390625,634.4688110351562,1430.627685546875
9348,4.132986545562744,-8.98802661895752,0.425101637840271,-0.0021829926408827305,-0.041546911001205444,-0.018633849918842316,-1150.7020263671875,634.223876953125,1430.537353515625
9348,4.133548736572266,-9.003084182739258,0.4044773578643799,-0.015187074430286884,-0.015708675608038902,-0.006091320887207985,-1150.4393310546875,634.1300048828125,1430.591796875
9348,4.120883941650391,-8.9915189743042,0.39243006706237793,-0.026090089231729507,0.004880751483142376,0.00757784117013216,-1150.2950439453125,634.0604248046875,1430.703125
9348,4.105011463165283,-8.970756530761719,0.3825817108154297,-0.03733962029218674,0.014859265647828579,0.019623247906565666,-1150.1629638671875,633.9027099609375,1430.8316650390625
9348,4.109584808349609,-8.953082084655762,0.37359607219696045,-0.04227784648537636,0.011656593531370163,0.019871581345796585,-1150.022705078125,633.7608642578125,1430.9931640625
9348,4.1339430809021,-8.933380126953125,0.3657815456390381,-0.03793298825621605,0.0012803133577108383,0.008685682900249958,-1149.8590087890625,633.7118530273438,1431.140625
10849,4.118721008300781,-8.943673133850098,0.3383626937866211,-0.02215135283768177,-0.01556268148124218,-0.015012018382549286,-1149.60009765625,633.628173828125,1431.27001953125
10849,4.085794925689697,-8.989439010620117,0.3154813051223755,0.011743050068616867,-0.04706732928752899,-0.06678403168916702,-1149.3511962890625,633.4007568359375,1431.4500732421875
10849,4.115367412567139,-9.030427932739258,0.3180887699127197,0.04503599554300308,-0.07506871223449707,-0.11162088811397552,-1149.274169921875,632.98046875,1431.65234375
10849,4.182992935180664,-9.031726837158203,0.32535672187805176,0.05710190534591675,-0.07583268731832504,-0.1077350303530693,-1149.4072265625,632.5723876953125,1431.758544921875
10849,4.221949100494385,-8.994340896606445,0.3395557403564453,0.04962952062487602,-0.055941835045814514,-0.07373398542404175,-1149.716552734375,632.3272705078125,1431.713134765625
10849,4.227428913116455,-8.953315734863281,0.35417401790618896,0.05440249294042587,-0.05452367290854454,-0.07301607728004456,-1150.0682373046875,632.171875,1431.5679931640625
10849,4.247313976287842,-8.897955894470215,0.3604801893234253,0.09355418384075165,-0.09298817813396454,-0.1332494169473648,-1150.380859375,631.9656982421875,1431.4078369140625
10849,4.317317962646484,-8.830320358276367,0.3677181005477905,0.14365015923976898,-0.14975060522556305,-0.2125604748725891,-1150.6943359375,631.5645751953125,1431.277099609375
10849,4.441582202911377,-8.786442756652832,0.3824707269668579,0.16912268102169037,-0.18333089351654053,-0.24919794499874115,-1151.1312255859375,630.938720703125,1431.2398681640625
10849,4.558172702789307,-8.778822898864746,0.409525990486145,0.15477843582630157,-0.17029234766960144,-0.21893742680549622,-1151.5997314453125,630.2698974609375,1431.33740234375
10849,4.628368854522705,-8.782296180725098,0.44689667224884033,0.11165621131658554,-0.12323656678199768,-0.14359520375728607,-1151.912353515625,629.74267578125,1431.5194091796875
10849,4.650881767272949,-8.76580810546875,0.4794015884399414,0.06265175342559814,-0.06937378644943237,-0.06250927597284317,-1152.0350341796875,629.4151611328125,1431.5948486328125
10849,4.634608745574951,-8.736701965332031,0.4972877502441406,0.030856052413582802,-0.03651208057999611,-0.019719460979104042,-1152.0894775390625,629.189208984375,1431.539306640625
10849,4.605656623840332,-8.723959922790527,0.4940294027328491,0.022645434364676476,-0.03512819483876228,-0.03107127733528614,-1152.2720947265625,628.9834594726562,1431.482666015625
10849,4.589944839477539,-8.732622146606445,0.47263848781585693,0.04876541346311569,-0.06890340894460678,-0.09680543094873428,-1152.6279296875,628.7401733398438,1431.5062255859375
10849,4.5963969230651855,-8.70383071899414,0.47272777557373047,0.14479845762252808,-0.1599724292755127,-0.24600736796855927,-1153.22705078125,628.3182983398438,1431.5872802734375
10849,4.5934367179870605,-8.598134994506836,0.5195820331573486,0.34625712037086487,-0.3467743992805481,-0.51381915807724,-1154.1378173828125,627.2520751953125,1431.63037109375
10849,4.678097724914551,-8.367557525634766,0.6270678043365479,0.6415327191352844,-0.6365029215812683,-0.8644030094146729,-1155.125244140625,624.8709716796875,1431.4993896484375
10849,5.081336498260498,-8.04884147644043,0.733923077583313,0.8659546971321106,-0.8869404792785645,-1.0606622695922852,-1155.592041015625,621.0177001953125,1431.23291015625
10849,5.798818588256836,-7.811155796051025,0.7808699607849121,0.8519864082336426,-0.9078094959259033,-0.9078013300895691,-1155.04052734375,616.633544921875,1431.068359375
10849,6.44555139541626,-7.621139049530029,0.8161180019378662,0.6073442101478577,-0.6468782424926758,-0.47480860352516174,-1153.58984375,613.0657958984375,1431.0537109375
10849,6.632108211517334,-7.638672828674316,0.8399720191955566,0.2562326192855835,-0.2567053735256195,0.002380210906267166,-1151.6634521484375,611.21826171875,1431.1744384765625
10849,6.382904529571533,-7.935656547546387,0.811898946762085,-0.012479949742555618,0.032716814428567886,0.2702072262763977,-1149.7071533203125,611.0650634765625,1431.474365234375
10849,5.990509033203125,-8.223592758178711,0.7773586511611938,-0.09777654707431793,0.11355644464492798,0.25191381573677063,-1148.273193359375,611.7060546875,1431.8829345703125
10849,5.741805553436279,-8.284313201904297,0.7831648588180542,-0.0314810648560524,0.02550317719578743,0.06559337675571442,-1147.6453857421875,612.206298828125,1432.193603515625
10849,5.729405879974365,-8.097970962524414,0.8327205181121826,0.09301924705505371,-0.11283672600984573,-0.10935556143522263,-1147.6336669921875,612.1143798828125,1432.296630859375
10849,5.869227886199951,-7.873101234436035,0.8778512477874756,0.19150570034980774,-0.2082873284816742,-0.16630730032920837,-1147.7730712890625,611.4830322265625,1432.2738037109375
10849,6.023844242095947,-7.753145694732666,0.8808780908584595,0.21718600392341614,-0.22170040011405945,-0.10251511633396149,-1147.8714599609375,610.7530517578125,1432.140625
10849,6.106273174285889,-7.750219345092773,0.8661736249923706,0.17329242825508118,-0.16943243145942688,0.013668930158019066,-1147.8836669921875,610.3547973632812,1431.98193359375
10849,6.117339134216309,-7.778097629547119,0.8701095581054688,0.0921756699681282,-0.08434172719717026,0.11799315363168716,-1147.615966796875,610.3290405273438,1431.9490966796875
10849,6.075817108154297,-7.809293746948242,0.9020043611526489,-0.004299362190067768,0.015809979289770126,0.19982463121414185,-1146.9810791015625,610.494873046875,1432.0650634765625
10849,6.016457557678223,-7.812705039978027,0.9660438299179077,-0.09055491536855698,0.11926887184381485,0.2764522135257721,-1146.09228515625,610.811279296875,1432.271484375
10849,5.973438262939453,-7.787494659423828,1.0631413459777832,-0.15792128443717957,0.23835285007953644,0.3915821313858032,-1145.038818359375,611.4888916015625,1432.388916015625
10849,5.858394622802734,-7.815157890319824,1.1820086240768433,-0.2187195122241974,0.36717164516448975,0.5392861366271973,-1143.82763671875,612.8963012695312,1432.38818359375
10849,5.624408721923828,-8.014281272888184,1.2940359115600586,-0.20887771248817444,0.3726758658885956,0.5999312400817871,-1142.2938232421875,615.0081787109375,1432.398193359375
10849,5.523344993591309,-8.296375274658203,1.2642303705215454,-0.03229697421193123,0.13528524339199066,0.502934455871582,-1140.3634033203125,617.345458984375,1432.48095703125
10849,5.859696865081787,-8.55976390838623,1.011742115020752,0.3238086402416229,-0.25917473435401917,0.24965456128120422,-1138.1597900390625,619.7822265625,1432.578125
10849,6.393073558807373,-8.575179100036621,0.6891757249832153,0.7883056402206421,-0.5398890376091003,-0.13531151413917542,-1136.115478515625,622.752685546875,1432.515625
10849,6.508543014526367,-8.347702980041504,0.5877043008804321,1.1255252361297607,-0.4759098291397095,-0.4901736080646515,-1134.344970703125,626.8240966796875,1431.7783203125
12351,5.955170631408691,-8.19448184967041,0.9105770587921143,1.1821578741073608,-0.08724385499954224,-0.6750908493995667,-1132.354736328125,631.9686889648438,1429.4544677734375
12351,4.856564044952393,-8.147771835327148,1.59184730052948,1.0760642290115356,0.28872817754745483,-0.7433578968048096,-1129.872802734375,637.2092895507812,1424.7037353515625
12351,4.026688575744629,-7.96422004699707,2.370067596435547,1.0269043445587158,0.282747745513916,-0.824508547782898,-1127.85302734375,640.894287109375,1417.04443359375
12351,4.255984783172607,-7.689035892486572,2.956052780151367,1.0983332395553589,-0.06835411489009857,-0.8632246255874634,-1127.3753662109375,641.42919921875,1406.8560791015625
12351,5.445494174957275,-7.393466949462891,3.135233163833618,1.2065573930740356,-0.41679298877716064,-0.6747523546218872,-1127.6893310546875,637.6988525390625,1395.8863525390625
12351,6.869618892669678,-6.910803318023682,3.0008935928344727,1.2767412662506104,-0.5246066451072693,-0.25566092133522034,-1126.6959228515625,629.5394287109375,1387.7410888671875
12351,7.663903713226318,-6.444957256317139,2.959620952606201,1.1986582279205322,-0.37432101368904114,0.21362890303134918,-1123.250244140625,618.785888671875,1386.0550537109375
12351,7.201971530914307,-6.193946361541748,3.312842845916748,0.8552031517028809,-0.18522082269191742,0.47758814692497253,-1118.367431640625,608.8680419921875,1391.291015625
12351,5.8341498374938965,-6.172445297241211,3.8649072647094727,0.3500456213951111,-0.21081312000751495,0.3559332489967346,-1114.364013671875,602.564697265625,1400.489501953125
12351,5.022071838378906,-6.321715831756592,4.026188850402832,0.008806809782981873,-0.5322848558425903,-0.06559199094772339,-1112.9365234375,600.5296630859375,1409.532470703125
12351,5.655438423156738,-6.574704647064209,3.6383533477783203,0.04323793947696686,-0.8738293051719666,-0.4811745285987854,-1114.1004638671875,601.3746948242188,1415.3704833984375
12351,6.950030326843262,-6.734466552734375,3.286431074142456,0.3614285886287689,-0.7968535423278809,-0.6217494606971741,-1116.5224609375,603.0382690429688,1417.0762939453125
12351,7.55748987197876,-6.365691661834717,3.250215530395508,0.6152564883232117,-0.2286204993724823,-0.45964518189430237,-1118.4127197265625,604.023681640625,1415.6046142578125
12351,7.338244438171387,-5.716313362121582,3.431507110595703,0.5556207299232483,0.37991267442703247,-0.18251442909240723,-1118.7862548828125,603.8904418945312,1412.8477783203125
12351,7.121436595916748,-5.500757694244385,3.6846580505371094,0.2558456361293793,0.7434863448143005,0.07199011743068695,-1117.752197265625,602.9480590820312,1410.603515625
12351,7.029713153839111,-5.781196594238281,3.830568790435791,-0.010446704924106598,0.922150194644928,0.2665516138076782,-1115.9373779296875,601.7985229492188,1409.731689453125
12351,6.759837627410889,-6.1077775955200195,3.8804128170013428,-0.052951663732528687,0.9394400119781494,0.41550326347351074,-1113.9969482421875,600.9380493164062,1410.0230712890625
12351,6.378143787384033,-6.232601642608643,3.998500347137451,0.1118348240852356,0.6950646638870239,0.49121159315109253,-1112.4195556640625,600.486083984375,1410.529541015625
12351,6.165335178375244,-6.110966682434082,4.226878643035889,0.25971245765686035,0.28462284803390503,0.4065866470336914,-1111.449462890625,600.287841796875,1410.4066162109375
12351,6.16242790222168,-5.850802421569824,4.482977390289307,0.15526290237903595,0.01622760482132435,0.19138853251934052,-1111.036376953125,600.3961181640625,1409.5
12351,6.342586517333984,-5.710236549377441,4.6483235359191895,-0.1972401738166809,0.01330623496323824,0.010397647507488728,-1110.966796875,601.0108642578125,1408.183837890625
12351,6.528785705566406,-6.007858753204346,4.647703170776367,-0.5214096307754517,0.17209210991859436,0.06416577845811844,-1110.9873046875,602.1239013671875,1407.04150390625
12351,6.400402545928955,-6.5546040534973145,4.473796844482422,-0.47321462631225586,0.18387198448181152,0.39574187994003296,-1110.8642578125,603.41064453125,1406.419677734375
12351,5.980792045593262,-6.903241157531738,4.283914566040039,-0.14527712762355804,-0.09760411083698273,0.6889756917953491,-1110.7650146484375,604.439453125,1406.387451171875
12351,5.612025737762451,-7.05714750289917,4.217923641204834,0.11656804382801056,-0.44398894906044006,0.6162841320037842,-1111.1632080078125,605.0157470703125,1406.8533935546875
12351,5.498688220977783,-7.0904860496521,4.227916240692139,0.12554597854614258,-0.4611988663673401,0.21100538969039917,-1112.143798828125,605.22265625,1407.726806640625
12351,5.687145709991455,-6.930138111114502,4.235617160797119,-0.10444116592407227,-0.009553072042763233,-0.22118286788463593,-1113.2366943359375,605.2613525390625,1408.774658203125
12351,5.931190013885498,-6.766964912414551,4.2015509605407715,-0.43429243564605713,0.7764129042625427,-0.355750173330307,-1113.6544189453125,605.4238891601562,1409.662841796875
12351,5.933309555053711,-6.852589130401611,3.9878764152526855,-0.5907005667686462,1.4691089391708374,-0.16946323215961456,-1112.828369140625,605.7953491210938,1410.2275390625
12351,5.533699035644531,-7.143848896026611,3.671776056289673,-0.6953938007354736,1.4986817836761475,0.13927431404590607,-1111.1409912109375,606.2752685546875,1410.6326904296875
12351,4.9720001220703125,-7.475726127624512,3.8383278846740723,-0.9501489400863647,0.851906955242157,0.41466012597084045,-1109.4390869140625,606.9226684570312,1411.3411865234375
12351,4.605321884155273,-7.636013031005859,4.2537841796875,-1.3432648181915283,0.18783345818519592,0.6075582504272461,-1108.2392578125,607.7877197265625,1412.5869140625
12351,4.3071770668029785,-7.7403693199157715,4.386857986450195,-1.8455681800842285,-0.0692085325717926,0.8474485278129578,-1107.2447509765625,608.9069213867188,1414.6219482421875
12351,4.02103328704834,-8.06101131439209,3.9294819831848145,-2.268028736114502,-0.046799302101135254,1.0155805349349976,-1106.032958984375,610.2996215820312,1417.510009765625
12351,3.920372247695923,-8.573171615600586,2.9633054733276367,-2.331118583679199,0.07710963487625122,0.9361037611961365,-1104.6953125,611.7494506835938,1420.799560546875
12351,3.988269805908203,-9.09644889831543,1.860372543334961,-1.967979073524475,0.19019950926303864,0.6897544860839844,-1103.4932861328125,612.8743896484375,1423.7666015625
12351,4.075231552124023,-9.482853889465332,0.9497839212417603,-1.2823368310928345,0.24418312311172485,0.47256872057914734,-1102.529052734375,613.5120239257812,1425.9246826171875
12351,4.009204864501953,-9.610095977783203,0.40440571308135986,-0.4708622097969055,0.294570654630661,0.468901127576828,-1101.6207275390625,613.6840209960938,1427.0115966796875
12351,3.570448160171509,-9.498784065246582,0.3670545816421509,0.16709859669208527,0.3818650245666504,0.6855279207229614,-1100.39794921875,613.534423828125,1427.0938720703125
13851,2.892070770263672,-9.309792518615723,0.7572457790374756,0.4600677788257599,0.4109852910041809,0.8765332698822021,-1098.756103515625,613.2518310546875,1426.587890625
13851,2.3599259853363037,-9.330881118774414,1.2502782344818115,0.4792774021625519,0.34213313460350037,0.8813957571983337,-1097.0023193359375,612.9652709960938,1425.914306640625
13851,2.1534581184387207,-9.556918144226074,1.6088745594024658,0.4179046154022217,0.33462467789649963,0.8807669281959534,-1095.2315673828125,612.6590576171875,1425.322021484375
13851,1.901766300201416,-9.683938980102539,1.8222267627716064,0.41798004508018494,0.4827946126461029,1.0080714225769043,-1093.224609375,612.1507568359375,1424.8927001953125
13851,1.3205125331878662,-9.601957321166992,1.9589861631393433,0.35737472772598267,0.5625470280647278,1.1329320669174194,-1091.0467529296875,611.3433837890625,1424.6142578125
13851,0.554199755191803,-9.529853820800781,2.0111560821533203,0.1183328628540039,0.40878331661224365,1.0802021026611328,-1089.0625,610.462158203125,1424.552001953125
13851,-0.05916780233383179,-9.545419692993164,1.9297367334365845,-0.20776087045669556,0.0378631055355072,0.8100482225418091,-1087.6197509765625,609.8658447265625,1424.73291015625
13851,-0.17610383033752441,-9.654756546020508,1.6971678733825684,-0.5010368824005127,-0.38536128401756287,0.5381729602813721,-1086.8486328125,609.654052734375,1425.058837890625
13851,-0.12881618738174438,-9.98788833618164,1.2329800128936768,-0.5978988409042358,-0.5817282199859619,0.5759087204933167,-1086.36328125,609.6561279296875,1425.3831787109375
13851,-0.021156787872314453,-10.287823677062988,0.8036239743232727,-0.6044504046440125,-0.3231026232242584,1.5748153924942017,-1085.1285400390625,609.20556640625,1425.748291015625
13851,-0.43786752223968506,-10.028192520141602,0.6522123217582703,-0.899860680103302,0.22552189230918884,4.2514848709106445,-1081.35986328125,606.565673828125,1426.7115478515625
13851,-1.880059003829956,-8.484970092773438,0.7963594198226929,-1.4425177574157715,0.5976904034614563,6.761233806610107,-1074.75146484375,600.662353515625,1428.3829345703125
13851,-3.986269950866699,-6.5404486656188965,0.7895368337631226,-1.8412688970565796,0.7744995355606079,6.9523115158081055,-1067.3116455078125,593.1368408203125,1430.49169921875
13851,-6.177451133728027,-5.268273830413818,0.2666546702384949,-1.6937073469161987,0.7508879899978638,4.7454609870910645,-1061.5589599609375,586.8473510742188,1432.683349609375
13851,-7.693825721740723,-4.951194763183594,-0.5030186176300049,-0.9440128207206726,0.43796101212501526,1.4506064653396606,-1058.9520263671875,583.69677734375,1434.297607421875
13851,-8.078763008117676,-5.465606689453125,-0.9599121809005737,0.1825198531150818,-0.07763294875621796,-1.5369751453399658,-1059.4288330078125,584.145263671875,1434.6375732421875
13851,-7.439913749694824,-6.39333963394165,-0.7947237491607666,1.1711151599884033,-0.5474430918693542,-3.281776189804077,-1061.883544921875,587.3101806640625,1433.4832763671875
13851,-6.2431640625,-7.304817199707031,-0.2087644338607788,1.6473745107650757,-0.8123342394828796,-3.768817186355591,-1065.0233154296875,591.6824951171875,1431.4556884765625
13851,-4.883234977722168,-8.113993644714355,0.6158356666564941,1.998650312423706,-0.9492377638816833,-3.8402843475341797,-1068.451171875,596.22900390625,1428.9083251953125
13851,-3.472156286239624,-8.65640640258789,1.777129888534546,2.7783961296081543,-0.8945871591567993,-3.946366310119629,-1072.517333984375,600.256591796875,1425.4027099609375
13851,-2.3042445182800293,-8.631462097167969,2.921830177307129,2.757078170776367,-0.45274174213409424,-3.1970927715301514,-1076.5433349609375,603.131591796875,1421.53662109375
13851,-1.813953161239624,-8.598824501037598,3.3831441402435303,0.858721911907196,0.21726423501968384,-1.2164266109466553,-1078.68994140625,604.45361328125,1419.5814208984375
13851,-2.0279295444488525,-8.671310424804688,2.972073554992676,-1.5876212120056152,0.7633074522018433,0.6785680055618286,-1078.3123779296875,604.418212890625,1420.8486328125
13851,-2.351304769515991,-8.733238220214844,2.026099443435669,-2.6944644451141357,0.9632930159568787,0.6363357901573181,-1076.9951171875,604.09326171875,1424.3021240234375
13851,-1.9977167844772339,-9.28803539276123,1.1596583127975464,-2.072916030883789,0.8303661942481995,-1.1651923656463623,-1077.489501953125,604.8561401367188,1427.599853515625
13851,-0.986708402633667,-9.974892616271973,0.7375205159187317,-0.7376357913017273,0.5726828575134277,-2.641209840774536,-1080.436767578125,606.8626098632812,1429.319580078125
13851,0.07955276966094971,-10.355660438537598,0.7399097681045532,0.325832724571228,0.28431522846221924,-2.803255558013916,-1084.4661865234375,609.1690673828125,1429.4578857421875
13851,0.7785919904708862,-10.344193458557129,0.9592999219894409,0.7160571217536926,0.020073533058166504,-1.9242781400680542,-1087.9671630859375,610.8948974609375,1428.71044921875
13851,1.030723214149475,-10.120012283325195,1.1770895719528198,0.5644314289093018,-0.15861573815345764,-0.7617752552032471,-1089.9705810546875,611.703369140625,1427.84423828125
13851,0.8141870498657227,-9.889212608337402,1.25395929813385,0.23090240359306335,-0.2865157127380371,0.05417517200112343,-1090.4454345703125,611.7852783203125,1427.297119140625
13851,0.48408937454223633,-9.726061820983887,1.2820780277252197,0.0005960389971733093,-0.6311898231506348,0.2664654850959778,-1090.1824951171875,611.5274047851562,1426.9454345703125
13851,0.5118624567985535,-9.625006675720215,1.3192768096923828,-0.09898513555526733,-1.4339919090270996,0.11785126477479935,-1090.135498046875,611.231201171875,1426.4288330078125
13851,0.8186463713645935,-9.642281532287598,1.3053159713745117,-0.10230126976966858,-2.527702808380127,0.041401952505111694,-1090.5606689453125,610.9581298828125,1425.5540771484375
13851,1.1899337768554688,-9.720268249511719,1.1666862964630127,-0.09541180729866028,-3.3181514739990234,0.25722819566726685,-1091.0684814453125,610.671630859375,1424.416015625
13851,1.4323991537094116,-9.784445762634277,0.8755630254745483,-0.23913195729255676,-3.212909460067749,0.7349367737770081,-1091.048583984375,610.4248046875,1423.4322509765625
13851,1.2417938709259033,-9.801562309265137,0.4836105704307556,-0.46957698464393616,-2.204742431640625,1.26627779006958,-1090.0845947265625,610.2203369140625,1423.0697021484375
13851,0.6128493547439575,-9.7587308883667,0.12666034698486328,-0.49321338534355164,-0.8443432450294495,1.4244720935821533,-1088.3897705078125,609.97265625,1423.4111328125
13851,-0.10324704647064209,-9.72702693939209,-0.010359644889831543,-0.16354478895664215,0.2435505986213684,0.9935402274131775,-1086.685791015625,609.6749877929688,1423.9971923828125
13851,-0.5626271367073059,-9.727097511291504,0.08212411403656006,0.341623991727829,0.7577621936798096,0.20426487922668457,-1085.7554931640625,609.3873291015625,1424.2091064453125
15352,-0.5814036130905151,-9.733925819396973,0.3512381315231323,0.6845690011978149,0.7106502056121826,-0.46221724152565,-1085.804931640625,609.18408203125,1423.796875
15352,-0.2765992283821106,-9.72329044342041,0.6841113567352295,0.6943166851997375,0.36834609508514404,-0.690788984298706,-1086.486572265625,609.090087890625,1422.95458984375
15352,0.09139370918273926,-9.706334114074707,0.9629780650138855,0.4596710801124573,0.021489359438419342,-0.5173725485801697,-1087.283935546875,609.1361694335938,1422.1826171875
15352,0.3415675163269043,-9.687694549560547,1.1398060321807861,0.1670418232679367,-0.16783060133457184,-0.17438146471977234,-1087.825927734375,609.293701171875,1421.748779296875
15352,0.5560218691825867,-9.644129753112793,1.3088641166687012,-0.06538834422826767,-0.07288514077663422,0.09839900583028793,-1087.959716796875,609.47607421875,1421.6927490234375
15352,0.8172809481620789,-9.584510803222656,1.4811623096466064,-0.19226044416427612,0.5495079159736633,0.17073042690753937,-1087.7281494140625,609.6444702148438,1422.0911865234375
15352,1.1062521934509277,-9.555680274963379,1.590967059135437,-0.1981508582830429,1.832190990447998,-0.015704482793807983,-1087.3365478515625,609.7570190429688,1423.078125
15352,1.423226237297058,-9.688301086425781,1.529382348060608,-0.05082499980926514,3.772257089614868,-0.4600532650947571,-1087.0791015625,609.8626708984375,1424.781494140625
15352,1.5162352323532104,-9.915205001831055,1.0908074378967285,0.23476073145866394,5.952925682067871,-1.0082051753997803,-1087.4295654296875,610.1597900390625,1427.1392822265625
15352,1.0841208696365356,-10.098063468933105,0.45690035820007324,0.4603685438632965,6.988915920257568,-1.2924131155014038,-1088.659912109375,610.6614990234375,1429.753173828125
15352,0.3869544267654419,-10.23111629486084,-0.1497178077697754,0.46755075454711914,5.859088897705078,-1.053819179534912,-1090.289306640625,611.161865234375,1431.94287109375
15352,-0.060243844985961914,-10.282014846801758,-0.327578067779541,0.31546124815940857,3.250697374343872,-0.42903026938438416,-1091.4854736328125,611.44384765625,1433.1678466796875
15352,-0.16132909059524536,-10.154352188110352,0.09213864803314209,0.1597728133201599,0.6700178384780884,0.2222105860710144,-1091.686767578125,611.4522705078125,1433.320556640625
15352,-0.09585052728652954,-9.845893859863281,0.8869234323501587,0.07383399456739426,-0.8667913675308228,0.5612332820892334,-1091.009033203125,611.2996826171875,1432.80517578125
15352,0.029884040355682373,-9.495186805725098,1.6494386196136475,0.03696952760219574,-1.2137744426727295,0.5046290159225464,-1090.0609130859375,611.0716552734375,1432.09375
15352,0.1205211877822876,-9.325319290161133,2.0701491832733154,0.015219420194625854,-0.8117054104804993,0.23604169487953186,-1089.3929443359375,610.8694458007812,1431.518798828125
15352,0.08211171627044678,-9.348224639892578,2.0669589042663574,-0.005692267790436745,-0.29081955552101135,0.0031848959624767303,-1089.135498046875,610.8258056640625,1431.203125
15352,0.08364850282669067,-9.433059692382812,1.8730432987213135,-0.027083344757556915,-0.22124791145324707,-0.06212523579597473,-1089.1600341796875,610.9671020507812,1431.059326171875
15352,0.5825141668319702,-9.421725273132324,1.9723849296569824,-0.028314918279647827,-0.5943546295166016,0.037018969655036926,-1089.2069091796875,611.1618041992188,1430.8636474609375
15352,1.0725650787353516,-9.361065864562988,2.3835692405700684,-0.0536658838391304,-1.1320606470108032,0.13446497917175293,-1089.131103515625,611.2669067382812,1430.474365234375
15352,0.9407145977020264,-9.384702682495117,2.672605514526367,-0.1819271445274353,-1.5752395391464233,0.18335190415382385,-1088.9390869140625,611.266357421875,1429.9949951171875
15352,0.3152120113372803,-9.602306365966797,2.485952854156494,-0.47867444157600403,-1.5327106714248657,0.37697649002075195,-1088.5648193359375,611.11376953125,1429.7777099609375
15352,-0.34569787979125977,-9.901424407958984,1.843569040298462,-0.8241446614265442,-0.7597979307174683,0.780450701713562,-1087.7889404296875,610.7886962890625,1430.31298828125
15352,-0.8286207318305969,-10.056465148925781,1.0580542087554932,-0.8779787421226501,0.47490832209587097,0.9819861650466919,-1086.632568359375,610.2918701171875,1431.7099609375
15352,-1.0699191093444824,-10.002920150756836,0.30955302715301514,-0.6025906801223755,1.3981765508651733,0.77834552526474,-1085.5509033203125,609.8011474609375,1433.4193115234375
15352,-1.1472134590148926,-9.91122055053711,-0.31771886348724365,-0.2505023777484894,1.596649169921875,0.3702748119831085,-1085.01416015625,609.52880859375,1434.77734375
15352,-1.1244298219680786,-9.965058326721191,-0.7949619293212891,-0.02864658832550049,1.1777974367141724,0.0475248247385025,-1084.9488525390625,609.46923828125,1435.5352783203125
15352,-1.0377315282821655,-10.053974151611328,-1.0336859226226807,0.03277201950550079,0.43283531069755554,0.029755502939224243,-1085.0302734375,609.42578125,1435.832763671875
15352,-0.9743692874908447,-9.992842674255371,-1.0149916410446167,-0.05575326830148697,-0.5571540594100952,0.2984180748462677,-1084.8697509765625,609.1885986328125,1435.862548828125
15352,-1.01018488407135,-9.850598335266113,-0.622933030128479,-0.2114427089691162,-1.7398109436035156,0.6059091091156006,-1084.195068359375,608.7156982421875,1435.43603515625
15352,-1.097977876663208,-9.612043380737305,0.18766093254089355,-0.2732963562011719,-2.620339870452881,0.7102323174476624,-1083.1097412109375,608.1050415039062,1434.2906494140625
15352,-1.2632582187652588,-9.361030578613281,1.0702838897705078,-0.17676326632499695,-2.5983433723449707,0.4943310618400574,-1082.0030517578125,607.6246337890625,1432.6585693359375
15352,-1.6849708557128906,-9.393731117248535,1.583327293395996,0.06540173292160034,-1.7827694416046143,0.0694316029548645,-1081.405517578125,607.492919921875,1431.1798095703125
15352,-2.2218122482299805,-9.578694343566895,1.532719373703003,0.3787599205970764,-0.9461865425109863,-0.2945180833339691,-1081.5023193359375,607.7305908203125,1430.0662841796875
15352,-2.425631523132324,-9.690534591674805,1.1460988521575928,0.6606355309486389,-0.8072112202644348,-0.45746493339538574,-1082.0621337890625,608.090576171875,1428.9271240234375
15352,-1.8117001056671143,-9.586761474609375,0.8376021385192871,0.8889219164848328,-1.3620076179504395,-0.5476829409599304,-1083.0035400390625,608.30712890625,1427.216796875
15352,-0.5546555519104004,-9.377845764160156,0.9094217419624329,0.8898279666900635,-1.922003984451294,-0.585574209690094,-1084.345947265625,608.2969360351562,1424.9482421875
15352,0.5656181573867798,-9.278549194335938,1.2961064577102661,0.5464273691177368,-1.9172403812408447,-0.4344088137149811,-1085.7386474609375,608.162841796875,1422.79052734375
15352,0.8932178616523743,-9.335594177246094,1.7399972677230835,-0.0838855654001236,-1.334652066230774,-0.02307935059070587,-1086.5565185546875,608.0245971679688,1421.5338134765625
16854,0.35680609941482544,-9.461572647094727,1.9885199069976807,-0.7545478343963623,-0.6193403005599976,0.4706117510795593,-1086.4093017578125,607.9884033203125,1421.6348876953125
16854,-0.4092608690261841,-9.660584449768066,1.9426240921020508,-1.1250251531600952,-0.17250730097293854,0.6786677241325378,-1085.5970458984375,608.1131591796875,1422.7393798828125
16854,-0.9496598243713379,-9.83860969543457,1.6438329219818115,-1.0584242343902588,-0.006258562207221985,0.5888291597366333,-1084.6492919921875,608.189453125,1424.041015625
16854,-1.1657136678695679,-9.935813903808594,1.2371423244476318,-0.6855486035346985,0.004459984600543976,0.3393249809741974,-1083.961181640625,608.1093139648438,1425.0086669921875
16854,-1.1278414726257324,-9.93205738067627,0.903171956539154,-0.24264143407344818,-0.028939582407474518,0.08195856958627701,-1083.6934814453125,608.0014038085938,1425.47607421875
16854,-0.983791708946228,-9.84113597869873,0.7526206374168396,0.07240074127912521,-0.04088384658098221,-0.0731833353638649,-1083.7518310546875,607.9830322265625,1425.5814208984375
16854,-0.8741052746772766,-9.72191047668457,0.779948890209198,0.1870499700307846,-0.005181334912776947,-0.10829225927591324,-1083.9827880859375,608.149169921875,1425.5869140625
16854,-0.8324570655822754,-9.634818077087402,0.8744305372238159,0.15313804149627686,0.07670742273330688,-0.09356008470058441,-1084.257080078125,608.3934936523438,1425.559326171875
16854,-0.8242415189743042,-9.611266136169434,0.9289892315864563,0.05624162405729294,0.15030835568904877,-0.0814540684223175,-1084.395263671875,608.4769897460938,1425.517578125
16854,-0.8144602179527283,-9.667021751403809,0.9150762557983398,-0.03215797245502472,0.1637723445892334,-0.07609552145004272,-1084.3956298828125,608.3698120117188,1425.5107421875
16854,-0.7996797561645508,-9.752796173095703,0.8676149845123291,-0.06940281391143799,0.12076176702976227,-0.05248299986124039,-1084.2637939453125,608.2313232421875,1425.5245361328125
16854,-0.7939293384552002,-9.805267333984375,0.8347008228302002,-0.055756524205207825,0.05467763915657997,-0.009671746753156185,-1084.03173828125,608.237060546875,1425.5272216796875
16854,-0.8128749132156372,-9.803414344787598,0.8384535312652588,-0.01786208711564541,0.0006645745597779751,0.031197883188724518,-1083.8302001953125,608.3201904296875,1425.535400390625
16854,-0.8499398231506348,-9.756634712219238,0.8620416522026062,0.013378104194998741,-0.022127289324998856,0.050612375140190125,-1083.76220703125,608.41357421875,1425.5313720703125
16854,-0.8825141191482544,-9.71007251739502,0.8807945251464844,0.021993955597281456,-0.016454292461276054,0.04275507107377052,-1083.819091796875,608.509521484375,1425.54296875
16854,-0.8910381197929382,-9.697432518005371,0.8848475217819214,0.017703866586089134,-0.0006266597774811089,0.015157463029026985,-1083.8695068359375,608.5948486328125,1425.669921875
16854,-0.8682553768157959,-9.705008506774902,0.8806965351104736,0.017455771565437317,0.007965216413140297,-0.020716996863484383,-1083.87548828125,608.6561279296875,1425.9095458984375
16854,-0.8377376794815063,-9.719433784484863,0.878665566444397,0.021730469539761543,0.0074081504717469215,-0.04065263643860817,-1083.90283203125,608.6287231445312,1426.07421875
16854,-0.8276472687721252,-9.73241901397705,0.8846942186355591,0.023538580164313316,0.003391818143427372,-0.035428810864686966,-1083.9200439453125,608.541015625,1425.96240234375
16854,-0.8358479142189026,-9.737396240234375,0.8996738791465759,0.018804077059030533,-0.000546768307685852,-0.018321562558412552,-1083.92822265625,608.493896484375,1425.6063232421875
16854,-0.8374201059341431,-9.73172664642334,0.9172831773757935,0.010261810384690762,-0.0045615676790475845,-0.00436482485383749,-1083.919189453125,608.5165405273438,1425.218017578125
16854,-0.8199790120124817,-9.72100830078125,0.9251143336296082,0.0013288957998156548,-0.005992994178086519,0.003680116031318903,-1083.9373779296875,608.5194091796875,1425.008544921875
16854,-0.8078786134719849,-9.718375205993652,0.9185497164726257,-0.004735019989311695,-0.001927677309140563,0.009095266461372375,-1084.001953125,608.4249267578125,1425.0380859375
16854,-0.8169534802436829,-9.722613334655762,0.9068728685379028,-0.006029711104929447,0.003821102436631918,0.012935386970639229,-1084.1209716796875,608.24658203125,1425.2149658203125
16854,-0.8314684629440308,-9.725960731506348,0.8985105752944946,-0.005616172216832638,0.006049348972737789,0.016928236931562424,-1084.1982421875,608.0736694335938,1425.281005859375
16854,-0.8395165801048279,-9.728885650634766,0.8963103890419006,-0.0038914820179343224,0.0044763460755348206,0.01937667839229107,-1084.097900390625,607.978271484375,1425.19140625
16854,-0.8413618803024292,-9.728669166564941,0.89948970079422,0.0004773767723236233,0.0021253926679491997,0.0177739467471838,-1083.823486328125,607.9700927734375,1425.099609375
16854,-0.8432763814926147,-9.726125717163086,0.9043346643447876,0.0048132846131920815,0.0010749874636530876,0.014066841453313828,-1083.6119384765625,608.00537109375,1425.1339111328125
16854,-0.8467491269111633,-9.722051620483398,0.9098359942436218,0.006057346239686012,0.0006523318006657064,0.01016936730593443,-1083.6278076171875,608.087158203125,1425.25439453125
16854,-0.8510258197784424,-9.718608856201172,0.9149469137191772,0.0034926377702504396,0.00045916170347481966,0.007625810336321592,-1083.79052734375,608.16064453125,1425.3697509765625
16854,-0.8572186231613159,-9.715476036071777,0.9161854982376099,-0.002291686600074172,0.0015852546785026789,0.006996714044362307,-1083.9522705078125,608.1739501953125,1425.436767578125
16854,-0.8669636249542236,-9.718067169189453,0.9110861420631409,-0.010253637097775936,0.003232302377000451,0.0066843521781265736,-1083.9945068359375,608.1644287109375,1425.4586181640625
16854,-0.8765885829925537,-9.72731876373291,0.899295449256897,-0.015291087329387665,0.0022185358684509993,0.005010970868170261,-1083.9716796875,608.199462890625,1425.4971923828125
16854,-0.8752785921096802,-9.734068870544434,0.8873875141143799,-0.013102294877171516,-0.0012390458723530173,0.002552281366661191,-1083.93408203125,608.3325805664062,1425.5439453125
16854,-0.8656297326087952,-9.735811233520508,0.8827182054519653,-0.0037127898540347815,-0.0032152433414012194,-0.00013120955554768443,-1083.88720703125,608.484375,1425.6239013671875
16854,-0.8558425903320312,-9.729196548461914,0.8890628814697266,0.008415769785642624,-0.003426119452342391,-0.006159073673188686,-1083.841796875,608.5096435546875,1425.7335205078125
16854,-0.8491184115409851,-9.719931602478027,0.9002556204795837,0.01487056165933609,-0.0031843509059399366,-0.01499585434794426,-1083.878662109375,608.3969116210938,1425.843017578125
16854,-0.8448960185050964,-9.71839427947998,0.9063615798950195,0.013947498984634876,-0.0031731182243674994,-0.022240594029426575,-1084.0361328125,608.2200927734375,1425.950439453125
16854,-0.840105414390564,-9.722418785095215,0.9077070355415344,0.010296712629497051,-0.003082321025431156,-0.02474750392138958,-1084.2529296875,608.047607421875,1425.9615478515625
18355,-0.8352417945861816,-9.728011131286621,0.9083808660507202,0.007369328290224075,-0.0021216035820543766,-0.021292686462402344,-1084.3641357421875,607.8726806640625,1425.8819580078125
18355,-0.8314914703369141,-9.731255531311035,0.9104629755020142,0.00627236207947135,-0.0009427694603800774,-0.014121739193797112,-1084.2413330078125,607.785888671875,1425.85498046875
18355,-0.826346755027771,-9.730070114135742,0.9140622615814209,0.005878116004168987,-0.000785690383054316,-0.008155092597007751,-1083.998046875,607.811767578125,1425.91162109375
18355,-0.8195230960845947,-9.728667259216309,0.9174618124961853,0.005674542859196663,-0.0013916556490585208,-0.0052282968536019325,-1083.82373046875,607.9814453125,1426.0494384765625
18355,-0.814021110534668,-9.729228973388672,0.9197367429733276,0.006488894112408161,-0.0015168633544817567,-0.003922873176634312,-1083.8326416015625,608.2244873046875,1426.1749267578125
18355,-0.8112956285476685,-9.729633331298828,0.9221621751785278,0.007571893744170666,-0.0007159084780141711,-0.0023350545670837164,-1083.9732666015625,608.3773193359375,1426.193359375
18355,-0.8110552430152893,-9.729280471801758,0.9249962568283081,0.0068087088875472546,0.0003793031210079789,0.0001662287104409188,-1084.1822509765625,608.3600463867188,1426.1744384765625
18355,-0.8114043474197388,-9.72953987121582,0.9265000820159912,0.004241120535880327,0.0008150393259711564,0.001779833110049367,-1084.471923828125,608.2579345703125,1426.1741943359375
18355,-0.8115575313568115,-9.731147766113281,0.9258956909179688,0.0018933003302663565,0.000625794637016952,0.001944759045727551,-1084.6470947265625,608.1975708007812,1426.104736328125
18355,-0.8126074075698853,-9.731865882873535,0.9249253869056702,0.0017794116865843534,0.0002477578818798065,0.0007558910292573273,-1084.5599365234375,608.26806640625,1425.890380859375
18355,-0.8129385709762573,-9.72895622253418,0.9255577325820923,0.00278663681820035,-2.1196436136960983e-05,-0.0006015602266415954,-1084.26318359375,608.4715576171875,1425.6717529296875
18355,-0.8126821517944336,-9.726371765136719,0.9266356229782104,0.0027535846456885338,-6.210949504747987e-05,-0.00012435487587936223,-1083.92578125,608.6886596679688,1425.5802001953125
18355,-0.8119369745254517,-9.72402572631836,0.9284170269966125,0.0018309388542547822,-0.00013801525346934795,0.0016703916480764747,-1083.738037109375,608.7012939453125,1425.60888671875
18355,-0.8119539022445679,-9.721476554870605,0.9306618571281433,-3.127497620880604e-07,-0.0004475089954212308,0.003089707577601075,-1083.745849609375,608.553466796875,1425.7335205078125
18355,-0.8120417594909668,-9.721023559570312,0.9310540556907654,-0.0010230124462395906,-0.002027118345722556,0.001157358754426241,-1083.8465576171875,608.44775390625,1425.7818603515625
18355,-0.8079994916915894,-9.721959114074707,0.9318345785140991,0.0026473524048924446,-0.007583720609545708,-0.008757060393691063,-1083.8948974609375,608.4628295898438,1425.6929931640625
18355,-0.7986849546432495,-9.725218772888184,0.9343721270561218,0.014584038406610489,-0.019201289862394333,-0.028537215664982796,-1083.826416015625,608.5242919921875,1425.5146484375
18355,-0.7807657718658447,-9.733843803405762,0.9388387799263,0.03602621704339981,-0.03433406352996826,-0.05538429319858551,-1083.7451171875,608.615234375,1425.338134765625
18355,-0.7528001070022583,-9.745349884033203,0.9524945020675659,0.06083528324961662,-0.044811420142650604,-0.07553519308567047,-1083.7344970703125,608.699462890625,1425.214599609375
18355,-0.7212628722190857,-9.759965896606445,0.9768384695053101,0.07768039405345917,-0.04330340027809143,-0.07580122351646423,-1083.7777099609375,608.7578125,1425.130859375
18355,-0.6881206035614014,-9.755867958068848,1.0103453397750854,0.08910465985536575,-0.029758766293525696,-0.05515452101826668,-1083.8966064453125,608.80615234375,1425.0595703125
18355,-0.6651789546012878,-9.723919868469238,1.0486505031585693,0.0883270874619484,-0.009873682633042336,-0.00907927192747593,-1084.0660400390625,608.8799438476562,1425.0382080078125
18355,-0.6836715936660767,-9.695408821105957,1.0893296003341675,0.07096011191606522,0.006650896277278662,0.04139341786503792,-1084.2158203125,608.8969116210938,1425.0250244140625
18355,-0.7321643829345703,-9.67869758605957,1.1266024112701416,0.040023211389780045,0.012355657294392586,0.05919261276721954,-1084.3026123046875,608.8447265625,1424.88671875
18355,-0.7664381265640259,-9.665057182312012,1.1412787437438965,-0.0032730705570429564,0.007384750992059708,0.04117365553975105,-1084.3773193359375,608.7943115234375,1424.717529296875
18355,-0.7680102586746216,-9.675161361694336,1.1224356889724731,-0.045492950826883316,-0.0030072834342718124,0.002985067665576935,-1084.4580078125,608.765625,1424.682373046875
18355,-0.7384563088417053,-9.718411445617676,1.0835881233215332,-0.06570412218570709,-0.005511620081961155,-0.026921013370156288,-1084.529296875,608.7280883789062,1424.7110595703125
18355,-0.7060037851333618,-9.761058807373047,1.0481301546096802,-0.05818559601902962,0.006343740504235029,-0.02326217293739319,-1084.533447265625,608.6636962890625,1424.78271484375
18355,-0.691653847694397,-9.768190383911133,1.0290316343307495,-0.034558262676000595,0.024726256728172302,0.0077440449967980385,-1084.5234375,608.6155395507812,1424.8843994140625
18355,-0.707859218120575,-9.746310234069824,1.0190030336380005,-0.010717958211898804,0.04188326373696327,0.040891923010349274,-1084.5830078125,608.5904541015625,1425.0406494140625
18355,-0.733400821685791,-9.716919898986816,1.0203744173049927,0.004792270250618458,0.04556504264473915,0.057666994631290436,-1084.56591796875,608.5125732421875,1425.1710205078125
18355,-0.7614514827728271,-9.700429916381836,1.032934308052063,0.011560984887182713,0.03585789352655411,0.054183464497327805,-1084.4171142578125,608.4420166015625,1425.1732177734375
18355,-0.7973461151123047,-9.697137832641602,1.0449012517929077,0.012535850517451763,0.020454755052924156,0.035372454673051834,-1084.167236328125,608.4228515625,1425.021240234375
18355,-0.829619288444519,-9.704641342163086,1.043178677558899,0.011624811217188835,0.006408970337361097,0.009411242790520191,-1083.8565673828125,608.4580688476562,1424.9036865234375
18355,-0.8420863151550293,-9.71150016784668,1.035273790359497,0.016541481018066406,-0.0035606962628662586,-0.019477544352412224,-1083.5997314453125,608.487060546875,1424.9530029296875
18355,-0.823516845703125,-9.70845890045166,1.0341219902038574,0.03084210865199566,-0.012522746808826923,-0.05766133964061737,-1083.521484375,608.4912719726562,1425.03564453125
18355,-0.7784305214881897,-9.711363792419434,1.0426374673843384,0.04904177039861679,-0.02767043001949787,-0.09604158997535706,-1083.5806884765625,608.5296630859375,1425.0582275390625
18355,-0.7070218324661255,-9.721930503845215,1.0750226974487305,0.0662815123796463,-0.051255084574222565,-0.12491471320390701,-1083.7698974609375,608.526123046875,1424.9747314453125
18355,-0.6311297416687012,-9.725261688232422,1.1221510171890259,0.06942450255155563,-0.06714331358671188,-0.12437743693590164,-1084.12451171875,608.5438232421875,1424.7554931640625
19856,-0.5808091759681702,-9.726608276367188,1.1589789390563965,0.05183081328868866,-0.06659483164548874,-0.08663118630647659,-1084.499755859375,608.6044311523438,1424.5169677734375
19856,-0.5669958591461182,-9.727960586547852,1.1757242679595947,0.030851634219288826,-0.05348370224237442,-0.041139695793390274,-1084.699462890625,608.6787109375,1424.3350830078125
19856,-0.579264223575592,-9.72485065460205,1.1779719591140747,0.018023809418082237,-0.03786461055278778,-0.01426219567656517,-1084.756591796875,608.699462890625,1424.2181396484375
19856,-0.5961955785751343,-9.716645240783691,1.1774801015853882,0.00782180204987526,-0.02734610252082348,-0.004067002329975367,-1084.7791748046875,608.655517578125,1424.1258544921875
19856,-0.623649537563324,-9.70453929901123,1.1694109439849854,-0.007972422055900097,-0.01877535879611969,-0.008283840492367744,-1084.8388671875,608.6411743164062,1424.08056640625
19856,-0.6370092034339905,-9.715374946594238,1.1456403732299805,-0.02698591724038124,-0.012136233039200306,-0.021602289751172066,-1084.947265625,608.7178344726562,1424.124755859375
19856,-0.6026513576507568,-9.74567985534668,1.1196773052215576,-0.03544341400265694,-0.019885800778865814,-0.0264106597751379,-1085.0849609375,608.7899780273438,1424.212890625
19856,-0.5375665426254272,-9.757786750793457,1.118854284286499,-0.028130898252129555,-0.04752630367875099,-0.024533338844776154,-1085.2364501953125,608.7969970703125,1424.3251953125
19856,-0.4885100722312927,-9.741667747497559,1.1344650983810425,-0.015546291135251522,-0.07614538073539734,-0.016385942697525024,-1085.3802490234375,608.802978515625,1424.4002685546875
19856,-0.46938157081604004,-9.718893051147461,1.1543397903442383,-0.010745194740593433,-0.08294279873371124,0.001688462682068348,-1085.3807373046875,608.8892822265625,1424.4224853515625
19856,-0.4736335277557373,-9.707390785217285,1.169334888458252,-0.013535141944885254,-0.0683014988899231,0.019377782940864563,-1085.271728515625,609.0255126953125,1424.4791259765625
19856,-0.48339807987213135,-9.692710876464844,1.175520658493042,-0.02226322516798973,-0.04569130390882492,0.02508903294801712,-1085.17236328125,609.12841796875,1424.539306640625
19856,-0.5014728307723999,-9.689432144165039,1.161311388015747,-0.0376766100525856,-0.02111661061644554,0.015042668208479881,-1085.20361328125,609.1531982421875,1424.5399169921875
19856,-0.5209978818893433,-9.715728759765625,1.1233813762664795,-0.04872458428144455,0.0005693563725799322,-0.008474708534777164,-1085.276611328125,609.09765625,1424.458251953125
19856,-0.5247142314910889,-9.755829811096191,1.0768446922302246,-0.040787164121866226,0.016205234453082085,-0.033948782831430435,-1085.2608642578125,609.0260009765625,1424.335693359375
19856,-0.5197585821151733,-9.784621238708496,1.0446017980575562,-0.014455868862569332,0.02556181326508522,-0.04558752104640007,-1085.2308349609375,608.9688720703125,1424.2332763671875
19856,-0.5109918713569641,-9.78314208984375,1.0400173664093018,0.012789558619260788,0.024912746623158455,-0.03534039109945297,-1085.140625,608.90576171875,1424.185546875
19856,-0.4978933334350586,-9.759480476379395,1.056984543800354,0.02701513282954693,0.0153540950268507,-0.009850853122770786,-1084.9693603515625,608.812255859375,1424.20166015625
19856,-0.49050432443618774,-9.731806755065918,1.0804524421691895,0.0281475018709898,0.005035714246332645,0.017229177057743073,-1084.7796630859375,608.7221069335938,1424.224365234375
19856,-0.49832820892333984,-9.714116096496582,1.098506212234497,0.02178380824625492,-0.0009653442539274693,0.033857543021440506,-1084.61962890625,608.6588134765625,1424.208740234375
19856,-0.5142740607261658,-9.71151065826416,1.1104211807250977,0.013134590350091457,-0.00319608673453331,0.036242056638002396,-1084.572509765625,608.613525390625,1424.26123046875
19856,-0.5293115973472595,-9.717509269714355,1.1163907051086426,0.004568909294903278,-0.003986220341175795,0.028670860454440117,-1084.6783447265625,608.618408203125,1424.3753662109375
19856,-0.5406211614608765,-9.7250337600708,1.1150144338607788,-0.004258261993527412,-0.005960241425782442,0.01935378462076187,-1084.824951171875,608.744140625,1424.4844970703125
19856,-0.5454064607620239,-9.731080055236816,1.1097464561462402,-0.012030921876430511,-0.009759887121617794,0.01282249204814434,-1084.876220703125,608.908203125,1424.50439453125
19856,-0.5432167649269104,-9.733985900878906,1.1035804748535156,-0.015377276577055454,-0.01286439411342144,0.0092774648219347,-1084.951416015625,608.9608154296875,1424.415771484375
19856,-0.5364506840705872,-9.733205795288086,1.0995608568191528,-0.013920039869844913,-0.01251961663365364,0.00840447936207056,-1085.0443115234375,608.8675537109375,1424.3636474609375
19856,-0.5332719683647156,-9.732450485229492,1.0958361625671387,-0.009729957208037376,-0.008985823020339012,0.007692509796470404,-1085.1064453125,608.6531982421875,1424.403564453125
19856,-0.5357810258865356,-9.731640815734863,1.0910015106201172,-0.004638684913516045,-0.005257327109575272,0.0036705839447677135,-1085.127685546875,608.4453125,1424.4654541015625
19856,-0.5390965342521667,-9.732067108154297,1.086066484451294,6.0882477555423975e-05,-0.003437930019572377,-0.0027675048913806677,-1085.0750732421875,608.4715576171875,1424.46044921875
19856,-0.5404068231582642,-9.7329740524292,1.0825644731521606,0.0033479691483080387,-0.003553985618054867,-0.008283892646431923,-1084.9678955078125,608.690673828125,1424.3741455078125
19856,-0.5382425785064697,-9.73349380493164,1.0827045440673828,0.004563830327242613,-0.004940329119563103,-0.010241272859275341,-1084.8983154296875,608.946044921875,1424.2803955078125
19856,-0.533298134803772,-9.733170509338379,1.0878314971923828,0.004439684096723795,-0.006375931203365326,-0.008937063626945019,-1084.8687744140625,609.1614990234375,1424.233154296875
19856,-0.5292127728462219,-9.732029914855957,1.0943255424499512,0.0035223287995904684,-0.0063909729942679405,-0.005308407824486494,-1084.880615234375,609.2947387695312,1424.2318115234375
19856,-0.5282667279243469,-9.731523513793945,1.0993475914001465,0.002241150476038456,-0.004812590312212706,-0.0015542227774858475,-1084.948974609375,609.2789306640625,1424.23974609375
19856,-0.5289093255996704,-9.731176376342773,1.1012272834777832,0.0009134927531704307,-0.002561453962698579,0.0009159182664006948,-1084.97265625,609.1962890625,1424.196533203125
19856,-0.5306209325790405,-9.731297492980957,1.0998241901397705,-0.000568378483876586,-0.0006188404513522983,0.0029025496914982796,-1084.938720703125,609.0853271484375,1424.2005615234375
19856,-0.5325936079025269,-9.732277870178223,1.0959577560424805,-0.0019380664452910423,0.0006413017399609089,0.005050147417932749,-1084.908203125,608.9696044921875,1424.36669921875
19856,-0.5343161225318909,-9.7334566116333,1.092453956604004,-0.0030116839334368706,0.0013695992529392242,0.007737407926470041,-1084.9364013671875,608.9259033203125,1424.5946044921875
19856,-0.5365713834762573,-9.732891082763672,1.0902204513549805,-0.004050707444548607,0.0009595229057595134,0.009035906754434109,-1085.0634765625,608.9464111328125,1424.759521484375
21357,-0.5375303030014038,-9.731437683105469,1.0883177518844604,-0.004751976579427719,-0.0009156095329672098,0.007853163406252861,-1085.11279296875,608.931396484375,1424.79638671875
21357,-0.5362880825996399,-9.729524612426758,1.0879621505737305,-0.0044578188098967075,-0.0028010308742523193,0.0058260466903448105,-1084.989501953125,608.8719482421875,1424.7333984375
21357,-0.5344734191894531,-9.72995376586914,1.088059663772583,-0.003060875693336129,-0.0038776739966124296,0.00312102772295475,-1084.7396240234375,608.7703857421875,1424.6484375
21357,-0.5333350896835327,-9.732434272766113,1.088106632232666,0.00037019187584519386,-0.004399656783789396,-0.0019713989458978176,-1084.5018310546875,608.6980590820312,1424.4927978515625
21357,-0.5324002504348755,-9.73364543914795,1.0891046524047852,0.004365918226540089,-0.004252240061759949,-0.006813913583755493,-1084.352783203125,608.6414184570312,1424.2237548828125
21357,-0.5321815609931946,-9.733397483825684,1.092067003250122,0.006906540133059025,-0.0035413873847573996,-0.008868562057614326,-1084.393310546875,608.5897216796875,1423.9696044921875
21357,-0.5312767624855042,-9.733480453491211,1.0972803831100464,0.007912381552159786,-0.0031286142766475677,-0.010087136179208755,-1084.6767578125,608.6075439453125,1423.8292236328125
21357,-0.526397705078125,-9.73444652557373,1.1042640209197998,0.00859093014150858,-0.00371668953448534,-0.012872422114014626,-1085.019775390625,608.7337646484375,1423.85205078125
21357,-0.513911247253418,-9.736833572387695,1.110673427581787,0.010188768617808819,-0.005661358591169119,-0.018201109021902084,-1085.2530517578125,608.8896484375,1423.9996337890625
21357,-0.5012094974517822,-9.741793632507324,1.1115286350250244,0.014570321887731552,-0.009008790366351604,-0.02321857027709484,-1085.3641357421875,609.019287109375,1424.1370849609375
21357,-0.4923751950263977,-9.743888854980469,1.1098098754882812,0.0241636261343956,-0.01782848872244358,-0.03103053756058216,-1085.3780517578125,609.0424194335938,1424.1519775390625
21357,-0.4830038547515869,-9.739571571350098,1.113201379776001,0.03631265088915825,-0.02875606156885624,-0.04036576300859451,-1085.3026123046875,609.0457153320312,1424.0933837890625
21357,-0.46964865922927856,-9.729743957519531,1.126721739768982,0.04269326850771904,-0.03181082010269165,-0.04719662666320801,-1085.224365234375,609.09375,1424.0404052734375
21357,-0.4519224166870117,-9.7212553024292,1.1462064981460571,0.03878258168697357,-0.023315366357564926,-0.053025297820568085,-1085.27880859375,609.139404296875,1424.06005859375
21357,-0.42974114418029785,-9.723496437072754,1.1643245220184326,0.02640617825090885,-0.009229600429534912,-0.05236878618597984,-1085.3807373046875,609.128662109375,1424.14208984375
21357,-0.4060858488082886,-9.732065200805664,1.1756253242492676,0.010351902805268764,0.0031819557771086693,-0.031940240412950516,-1085.336181640625,609.065673828125,1424.1673583984375
21357,-0.39452481269836426,-9.736234664916992,1.1766260862350464,-0.00559563934803009,0.00958101823925972,0.012808401137590408,-1085.1510009765625,609.013916015625,1424.130615234375
21357,-0.40927350521087646,-9.733213424682617,1.1710669994354248,-0.01905706897377968,0.01040004100650549,0.06708787381649017,-1084.9857177734375,608.9896240234375,1424.0499267578125
21357,-0.4458041191101074,-9.721518516540527,1.1631922721862793,-0.028021080419421196,0.00943155400454998,0.10021527111530304,-1084.917236328125,609.0474853515625,1423.9306640625
21357,-0.4882066249847412,-9.71522331237793,1.1522607803344727,-0.0319460928440094,0.010004289448261261,0.09729505330324173,-1084.9293212890625,609.2068481445312,1423.7991943359375
21357,-0.525240421295166,-9.721484184265137,1.1375470161437988,-0.029728027060627937,0.012004425749182701,0.06882104277610779,-1084.9234619140625,609.3707275390625,1423.745361328125
21357,-0.548154890537262,-9.730368614196777,1.1229429244995117,-0.02217070199549198,0.013014983385801315,0.0342341773211956,-1084.84619140625,609.3778686523438,1423.7730712890625
21357,-0.5556269884109497,-9.736334800720215,1.1146693229675293,-0.013020375743508339,0.011661665514111519,0.009288270026445389,-1084.7144775390625,609.168701171875,1423.8695068359375
21357,-0.5521962642669678,-9.736948013305664,1.1134673357009888,-0.005708764307200909,0.007821541279554367,-0.0022898917086422443,-1084.5909423828125,608.9158935546875,1423.998779296875
21357,-0.5441430807113647,-9.734143257141113,1.1162885427474976,-0.001728116418235004,0.0027114776894450188,-0.004217843525111675,-1084.6226806640625,608.8917236328125,1424.146728515625
21357,-0.5363768339157104,-9.731127738952637,1.1187779903411865,-0.00034121901262551546,-0.0016527797561138868,-0.0017705075442790985,-1084.865966796875,609.048828125,1424.221435546875
21357,-0.5335853695869446,-9.729604721069336,1.1181854009628296,0.0006064660265110433,-0.003954736981540918,0.0005534310475923121,-1085.175048828125,609.1763305664062,1424.21044921875
21357,-0.5355209112167358,-9.72872543334961,1.1161876916885376,0.0024202431086450815,-0.004571670666337013,-0.0005345974350348115,-1085.302978515625,609.166259765625,1424.166748046875
21357,-0.5379002690315247,-9.729423522949219,1.114152431488037,0.004132035654038191,-0.004091605544090271,-0.0033885270822793245,-1085.1796875,609.1333618164062,1424.153076171875
21357,-0.5397452116012573,-9.731169700622559,1.113524317741394,0.004970313515514135,-0.002736414782702923,-0.004974386189132929,-1084.9700927734375,609.186767578125,1424.220947265625
21357,-0.5384931564331055,-9.731685638427734,1.115498661994934,0.004548599943518639,-0.0013062290381640196,-0.004573493264615536,-1084.8487548828125,609.2566528320312,1424.3614501953125
21357,-0.5338317155838013,-9.73046875,1.1189889907836914,0.0032832100987434387,-7.078138878569007e-05,-0.00259068189188838,-1084.896728515625,609.2312622070312,1424.57373046875
21357,-0.53043532371521,-9.728836059570312,1.1224864721298218,0.0023386848624795675,0.001016666879877448,-0.00039390052552334964,-1084.97314453125,609.1626586914062,1424.7423095703125
21357,-0.5310797691345215,-9.727606773376465,1.1254379749298096,0.0024525420740246773,0.0017255422426387668,0.0007732232334092259,-1085.0179443359375,609.1641845703125,1424.8314208984375
21357,-0.532209038734436,-9.726493835449219,1.1263079643249512,0.003095080377534032,0.0015278183855116367,0.0005164046306163073,-1084.9849853515625,609.2239379882812,1424.764892578125
21357,-0.5287035703659058,-9.72620964050293,1.1253832578659058,0.00459097558632493,5.9767975471913815e-05,-0.002383157378062606,-1084.8673095703125,609.3065185546875,1424.6177978515625
21357,-0.5224698781967163,-9.72685432434082,1.1261358261108398,0.006813481450080872,-0.001326387980952859,-0.006839076988399029,-1084.6689453125,609.3124389648438,1424.486572265625
21357,-0.520023763179779,-9.728534698486328,1.1287274360656738,0.006910637952387333,-0.0013410288374871016,-0.008712171576917171,-1084.4937744140625,609.229736328125,1424.3961181640625
21357,-0.5222630500793457,-9.733142852783203,1.1286386251449585,0.004410333000123501,6.577314343303442e-05,-0.005819217301905155,-1084.5157470703125,609.1585083007812,1424.3779296875
22858,-0.5243632793426514,-9.736177444458008,1.12699556350708,0.002660379046574235,0.0022237859666347504,-0.0008858101791702211,-1084.7630615234375,609.1448364257812,1424.400634765625
22858,-0.5236810445785522,-9.73417854309082,1.1285154819488525,0.002635407028719783,0.004050434101372957,0.0027362278196960688,-1085.0404052734375,609.138671875,1424.395263671875
22858,-0.5221996307373047,-9.729068756103516,1.1331886053085327,0.002135131973773241,0.004306039772927761,0.0034056087024509907,-1085.158447265625,609.1002197265625,1424.37255859375
22858,-0.5213111639022827,-9.725249290466309,1.1362299919128418,0.000280229898635298,0.002308389637619257,0.0005646392237395048,-1085.126708984375,609.06201171875,1424.2984619140625
22858,-0.5198026299476624,-9.724245071411133,1.136812448501587,-0.0009625646634958684,-0.0011455763597041368,-0.004940072074532509,-1085.04345703125,609.1041259765625,1424.244873046875
22858,-0.5140284895896912,-9.724241256713867,1.1383674144744873,0.0006957645528018475,-0.004938780330121517,-0.013483108021318913,-1084.917724609375,609.14794921875,1424.2445068359375
22858,-0.5041716694831848,-9.727534294128418,1.1392179727554321,0.004621039144694805,-0.00896873977035284,-0.02519344910979271,-1084.821533203125,609.14990234375,1424.2515869140625
22858,-0.4858594536781311,-9.73577880859375,1.1425719261169434,0.013908646069467068,-0.016885709017515182,-0.03563088923692703,-1084.857177734375,609.1696166992188,1424.23828125
22858,-0.43557626008987427,-9.748011589050293,1.1747996807098389,0.041720662266016006,-0.009393671527504921,-0.04038075730204582,-1085.0523681640625,609.2709350585938,1424.1925048828125
22858,-0.39747560024261475,-9.755220413208008,1.2127882242202759,0.08832059055566788,0.049184251576662064,-0.035561420023441315,-1085.32275390625,609.4185791015625,1424.137939453125
22858,-0.4353172779083252,-9.738289833068848,1.2157986164093018,0.13493800163269043,0.09373059123754501,-0.02129131183028221,-1085.48779296875,609.533935546875,1424.0904541015625
22858,-0.4915788769721985,-9.709675788879395,1.2327076196670532,0.16435401141643524,0.06143184006214142,-0.011493826285004616,-1085.5177001953125,609.5596313476562,1424.0638427734375
22858,-0.5112608075141907,-9.692625999450684,1.2890042066574097,0.1623307317495346,-0.0039009880274534225,0.0039587803184986115,-1085.52587890625,609.4976806640625,1423.9072265625
22858,-0.4825875163078308,-9.68911361694336,1.3652632236480713,0.1311357468366623,-0.0463055782020092,0.042737118899822235,-1085.4573974609375,609.3245239257812,1423.53369140625
22858,-0.32588475942611694,-9.679190635681152,1.4522539377212524,0.06597022712230682,-0.04263980686664581,0.08772598206996918,-1085.2564697265625,609.0443115234375,1423.180908203125
22858,-0.15282446146011353,-9.661690711975098,1.543143630027771,-0.03811590373516083,0.029590528458356857,0.06861208379268646,-1084.995361328125,608.800537109375,1423.0987548828125
22858,-0.23183894157409668,-9.687599182128906,1.5490165948867798,-0.1353446990251541,0.18017041683197021,-0.012779369950294495,-1084.8067626953125,608.7584228515625,1423.325439453125
22858,-0.5468396544456482,-9.880060195922852,1.4923474788665771,-0.08260466158390045,0.32707250118255615,-0.17146578431129456,-1084.8570556640625,608.8861694335938,1423.7032470703125
22858,-1.1022894382476807,-10.121566772460938,1.5549520254135132,0.2813464105129242,0.2597510516643524,-0.4594919681549072,-1085.3165283203125,609.08203125,1423.7320556640625
22858,-1.706815481185913,-10.109906196594238,1.7975130081176758,0.7391355633735657,-0.19812768697738647,-0.7043290734291077,-1086.3546142578125,609.232177734375,1422.9537353515625
22858,-1.5192439556121826,-9.821172714233398,2.0469634532928467,0.9082645773887634,-0.8927953839302063,-0.6303427219390869,-1087.728759765625,609.2129516601562,1421.4986572265625
22858,-0.3343932628631592,-9.669747352600098,2.143632650375366,0.7753854393959045,-1.2439044713974,-0.292660117149353,-1088.84619140625,608.9447021484375,1419.9691162109375
22858,0.9342731237411499,-9.818238258361816,2.134448528289795,0.609426736831665,-1.0118285417556763,-0.01852533221244812,-1089.3927001953125,608.4959716796875,1418.7559814453125
22858,1.68472158908844,-9.814181327819824,2.1272523403167725,0.5896733403205872,-0.38674700260162354,-0.0010128840804100037,-1089.587890625,608.0101318359375,1417.95068359375
22858,1.8430734872817993,-9.346233367919922,2.289299488067627,0.701858639717102,0.41689056158065796,-0.3162541091442108,-1089.813720703125,607.6155395507812,1417.425537109375
22858,1.6757469177246094,-8.660221099853516,2.7903189659118652,0.8224313855171204,1.1244615316390991,-0.9842066764831543,-1090.4332275390625,607.4264526367188,1416.983642578125
22858,1.4623970985412598,-7.97454309463501,3.1817069053649902,0.7849242687225342,1.2806915044784546,-1.840246319770813,-1091.7852783203125,607.5892333984375,1416.4552001953125
22858,1.620623230934143,-7.260664463043213,3.0767695903778076,0.5847766399383545,0.47066450119018555,-2.8144326210021973,-1094.5701904296875,608.01708984375,1415.8927001953125
22858,2.6360363960266113,-6.928966522216797,2.8020858764648438,0.4127601385116577,-1.1111689805984497,-3.7736833095550537,-1099.6451416015625,608.27685546875,1415.4061279296875
22858,4.744202136993408,-7.26215124130249,2.7608280181884766,0.4012885093688965,-2.543459415435791,-4.11453914642334,-1106.628173828125,608.0088500976562,1415.0589599609375
22858,7.217194080352783,-7.52259635925293,2.806572437286377,0.5637770295143127,-2.8586783409118652,-3.5689032077789307,-1113.73486328125,607.1463012695312,1414.8052978515625
22858,8.819005012512207,-7.35828161239624,2.8457744121551514,0.6930083632469177,-1.9279849529266357,-2.5249557495117188,-1119.211669921875,605.8697509765625,1414.4207763671875
22858,8.849007606506348,-6.929070472717285,2.8806800842285156,0.650352954864502,-0.5344429016113281,-1.547249436378479,-1122.37548828125,604.4006958007812,1413.7435302734375
22858,7.97681999206543,-6.21366548538208,3.0511178970336914,0.5919808149337769,0.3516290783882141,-1.080016851425171,-1123.8270263671875,602.8946533203125,1412.947021484375
22858,7.311456680297852,-5.3031005859375,3.3132681846618652,0.6789202690124512,0.40954476594924927,-1.092479944229126,-1124.8114013671875,601.219970703125,1412.18408203125
22858,7.411088943481445,-4.4698662757873535,3.4589791297912598,0.7171018123626709,-0.016040697693824768,-1.056131362915039,-1126.0225830078125,599.47607421875,1411.60693359375
22858,7.919811725616455,-4.008394241333008,3.2942347526550293,0.3801061511039734,-0.5022624731063843,-0.6278782486915588,-1127.2110595703125,598.3267211914062,1411.516357421875
22858,8.401189804077148,-3.991987943649292,2.8264129161834717,-0.20044420659542084,-0.915540874004364,-0.023369312286376953,-1127.983642578125,598.3119506835938,1412.3046875
22858,8.777677536010742,-4.245255947113037,2.2142410278320312,-0.6747565269470215,-1.0232930183410645,0.515602707862854,-1128.2183837890625,599.377197265625,1413.882080078125
24359,8.974486351013184,-4.650418281555176,1.7093729972839355,-0.9244487881660461,-0.6424195766448975,0.9046286940574646,-1127.8355712890625,601.01513671875,1415.583984375
24359,8.86474323272705,-5.059032440185547,1.4717731475830078,-1.0709816217422485,0.19302086532115936,1.1435500383377075,-1126.7447509765625,602.7731323242188,1416.7698974609375
24359,8.434709548950195,-5.471279144287109,1.540108323097229,-1.2707173824310303,1.243989109992981,1.3092360496520996,-1124.80029296875,604.3658447265625,1417.33251953125
24359,7.760638236999512,-5.947746753692627,1.7635401487350464,-1.514689564704895,1.993285894393921,1.472528338432312,-1122.08740234375,605.83154296875,1417.6263427734375
24359,6.948471546173096,-6.524898052215576,2.0305356979370117,-1.7245827913284302,2.075556755065918,1.6627681255340576,-1118.8802490234375,607.2974853515625,1418.2994384765625
24359,6.136909484863281,-7.2103447914123535,2.237631320953369,-1.724676489830017,1.5872201919555664,1.7132940292358398,-1115.611328125,608.7730102539062,1419.5634765625
24359,5.453235626220703,-7.839313507080078,2.2651193141937256,-1.4583903551101685,0.8929635286331177,1.5184749364852905,-1112.8236083984375,610.1405029296875,1421.1025390625
24359,5.088531017303467,-8.238032341003418,2.0889787673950195,-1.0692187547683716,0.34384119510650635,1.1989455223083496,-1110.700927734375,611.2581787109375,1422.537841796875
24359,4.946953773498535,-8.449090957641602,1.8106895685195923,-0.7138175368309021,0.07732254266738892,0.9241241812705994,-1109.068603515625,612.075439453125,1423.5921630859375
24359,4.838998794555664,-8.560846328735352,1.5275306701660156,-0.5553218722343445,0.07822110503911972,0.8907557129859924,-1107.5830078125,612.6439208984375,1424.307861328125
24359,4.670980453491211,-8.665931701660156,1.268088936805725,-0.5753162503242493,0.258506178855896,1.0259779691696167,-1105.8988037109375,612.9346923828125,1424.9510498046875
24359,4.3516526222229,-8.818594932556152,1.0634270906448364,-0.6028584837913513,0.4734356999397278,1.0777477025985718,-1104.070068359375,612.9772338867188,1425.6298828125
24359,3.8536858558654785,-9.002150535583496,0.8865442276000977,-0.5237908959388733,0.5676126480102539,0.9336599111557007,-1102.3780517578125,612.932861328125,1426.3265380859375
24359,3.366920232772827,-9.179400444030762,0.7341282367706299,-0.3249892294406891,0.4261016249656677,0.6521892547607422,-1101.1268310546875,612.9710693359375,1426.9493408203125
24359,3.0993146896362305,-9.30332088470459,0.6216237545013428,-0.034007854759693146,0.06216971203684807,0.3026846945285797,-1100.4559326171875,613.0767211914062,1427.29052734375
24359,3.1400556564331055,-9.385041236877441,0.6209110021591187,0.3012230694293976,-0.4017125964164734,-0.09178195148706436,-1100.4324951171875,613.12353515625,1427.1690673828125
24359,3.427313804626465,-9.441473960876465,0.8059693574905396,0.6900472044944763,-0.784351110458374,-0.5836541652679443,-1101.2889404296875,612.9842529296875,1426.443603515625
24359,3.909666061401367,-9.421602249145508,1.1713141202926636,1.1097215414047241,-1.0000609159469604,-1.1577908992767334,-1103.1905517578125,612.574951171875,1425.0645751953125
24359,4.543864727020264,-9.161649703979492,1.5888820886611938,1.4386636018753052,-1.0915169715881348,-1.6474573612213135,-1105.895751953125,611.8585205078125,1423.2510986328125
24359,5.1930952072143555,-8.639717102050781,2.006103277206421,1.5633763074874878,-1.062779188156128,-1.8609833717346191,-1108.9371337890625,610.9156494140625,1421.3721923828125
24359,5.811611175537109,-7.9883198738098145,2.302175521850586,1.380738377571106,-0.7706048488616943,-1.5683690309524536,-1111.6866455078125,609.9766845703125,1419.62890625
24359,6.513026714324951,-7.228330612182617,2.255736827850342,0.8618931174278259,-0.28486135601997375,-0.7428622245788574,-1113.3173828125,609.3336181640625,1418.2752685546875
24359,7.242692947387695,-6.797001361846924,2.0419628620147705,0.12464240193367004,0.19567406177520752,0.2938511073589325,-1113.331787109375,609.2105712890625,1417.8092041015625
24359,7.432373046875,-7.596471786499023,2.0668578147888184,-0.5592535138130188,0.8420855402946472,1.5804417133331299,-1111.406005859375,609.6116943359375,1418.429931640625
24359,6.2682905197143555,-8.776854515075684,2.178163528442383,-0.8004339933395386,1.77312171459198,3.147841453552246,-1106.865966796875,610.1986083984375,1419.7568359375
24359,3.9441237449645996,-8.889728546142578,2.2066314220428467,-0.5243874788284302,2.3866448402404785,3.6408467292785645,-1100.5355224609375,610.525390625,1420.9705810546875
24359,1.6989637613296509,-8.202220916748047,2.3128650188446045,0.1600881963968277,2.218996524810791,2.145902156829834,-1095.4622802734375,610.47412109375,1421.4078369140625
24359,0.478318452835083,-7.403135776519775,2.5945796966552734,0.8167538642883301,1.4142842292785645,-0.2880876064300537,-1094.1187744140625,610.1771240234375,1420.8590087890625
24359,0.7943940162658691,-7.203671455383301,3.009161949157715,0.9703817367553711,0.31623685359954834,-2.3192145824432373,-1096.473388671875,609.89208984375,1419.8299560546875
24359,2.1359472274780273,-7.608497619628906,3.43562912940979,0.6085115075111389,-0.672512412071228,-3.4101321697235107,-1101.1627197265625,609.72265625,1418.9764404296875
24359,3.809785842895508,-7.9572906494140625,3.572540044784546,-0.05930067598819733,-1.4024441242218018,-3.651195764541626,-1106.8138427734375,609.6576538085938,1418.8792724609375
24359,5.489800453186035,-7.857321739196777,3.2542567253112793,-0.6026780605316162,-1.7900406122207642,-3.2682278156280518,-1112.452880859375,609.4791870117188,1419.718505859375
24359,6.883619785308838,-7.352526664733887,2.64438796043396,-0.8629712462425232,-1.6865453720092773,-2.3238630294799805,-1117.140869140625,609.08935546875,1421.1798095703125
24359,7.565213203430176,-6.836352348327637,1.9368222951889038,-0.9159221649169922,-1.134475827217102,-0.9970042705535889,-1119.8990478515625,608.676025390625,1422.8453369140625
24359,7.595394611358643,-6.767422676086426,1.320902705192566,-0.6968789100646973,-0.5692383050918579,0.23380888998508453,-1120.52880859375,608.5333862304688,1424.3094482421875
24359,7.363266944885254,-6.974880695343018,0.9369416236877441,-0.26943376660346985,-0.3717314600944519,0.9137104749679565,-1119.693603515625,608.79248046875,1425.3114013671875
24359,6.925422191619873,-7.251421928405762,0.6827498078346252,0.1781524419784546,-0.6674289107322693,0.9272840619087219,-1118.3966064453125,609.2691650390625,1425.79345703125
24359,6.725032806396484,-7.530189037322998,0.5741523504257202,0.5147994756698608,-1.2922402620315552,0.5929824113845825,-1117.4508056640625,609.7516479492188,1425.9149169921875
24359,6.688518524169922,-8.07471752166748,0.5659047365188599,0.7490807771682739,-1.7908891439437866,0.5065245032310486,-1116.9951171875,610.0938720703125,1425.9093017578125
25860,6.389688491821289,-8.441760063171387,0.5923997163772583,0.81378173828125,-1.8219982385635376,1.2889155149459839,-1116.0010986328125,610.4410400390625,1425.825439453125
25860,5.708812713623047,-8.121305465698242,0.5911805629730225,0.2932671904563904,-1.4689242839813232,2.5405097007751465,-1113.1243896484375,611.0452880859375,1425.9053955078125
25860,4.7861528396606445,-7.103907585144043,0.3780224323272705,-0.5552663207054138,-1.1290892362594604,2.8060405254364014,-1108.79443359375,611.8372802734375,1426.5849609375
25860,4.652826309204102,-6.558000564575195,-0.23939627408981323,-1.345035195350647,-0.9239634275436401,1.777999997138977,-1105.1669921875,612.5543823242188,1428.1336669921875
25860,5.522064208984375,-6.968130111694336,-1.38847815990448,-1.7800345420837402,-0.41529226303100586,0.9068108797073364,-1103.0364990234375,613.0811767578125,1430.37890625
25860,5.9851765632629395,-7.984925746917725,-2.683361053466797,-1.7397253513336182,0.2646748423576355,0.829565703868866,-1101.6146240234375,613.3336791992188,1432.7803955078125
25860,5.295609951019287,-9.083365440368652,-3.403611660003662,-1.1854441165924072,0.6756832599639893,1.4490747451782227,-1099.95361328125,613.2573852539062,1434.7381591796875
25860,3.694943428039551,-9.960123062133789,-3.2678780555725098,0.08052994310855865,0.5828524827957153,2.144808530807495,-1097.521240234375,612.9061279296875,1435.452880859375
25860,1.9041533470153809,-10.429349899291992,-2.4264044761657715,1.9149006605148315,0.125545471906662,2.456420660018921,-1094.429931640625,612.2462768554688,1433.9173583984375
25860,0.5541414022445679,-10.150321960449219,-1.080711007118225,3.1571507453918457,-0.3766297996044159,2.0873517990112305,-1091.3499755859375,611.2798461914062,1430.0106201171875
25860,-0.03012901544570923,-9.68865966796875,0.31426548957824707,2.9870245456695557,-0.6427678465843201,1.1940594911575317,-1089.1533203125,610.3416748046875,1425.3126220703125
25860,0.018130958080291748,-9.416984558105469,1.2847316265106201,1.809315800666809,-0.5829313397407532,0.2701782286167145,-1088.2012939453125,609.7017822265625,1421.6529541015625
25860,0.3418068289756775,-9.40347957611084,1.663802146911621,0.47554367780685425,-0.3111421763896942,-0.29746612906455994,-1088.3414306640625,609.4256591796875,1419.9490966796875
25860,0.6148437857627869,-9.503702163696289,1.585737705230713,-0.3993273973464966,-0.017113037407398224,-0.4262063205242157,-1089.019775390625,609.455078125,1420.0345458984375
25860,0.6806841492652893,-9.46170711517334,1.2967785596847534,-0.6842500567436218,0.12385198473930359,-0.33980414271354675,-1089.6336669921875,609.7322387695312,1421.0264892578125
25860,0.5964129567146301,-9.448328018188477,1.0038104057312012,-0.6035322546958923,0.0016978243365883827,-0.48027339577674866,-1090.1455078125,610.238525390625,1422.094970703125
25860,0.5928399562835693,-9.891902923583984,0.9485678672790527,-0.10827848315238953,-0.5105371475219727,-1.3577853441238403,-1091.457275390625,610.7734375,1422.6492919921875
25860,1.1766655445098877,-10.765617370605469,1.7815313339233398,0.7837705016136169,-1.4298194646835327,-2.8739960193634033,-1094.9862060546875,610.950439453125,1422.130615234375
25860,2.754427433013916,-11.970057487487793,3.6980338096618652,1.6912384033203125,-1.5562529563903809,-3.993666172027588,-1100.8089599609375,610.3711547851562,1420.2982177734375
25860,4.478212356567383,-13.041177749633789,5.3618927001953125,2.2438225746154785,0.022590458393096924,-3.9898507595062256,-1106.6370849609375,608.8780517578125,1417.199462890625
25860,5.127910614013672,-13.202590942382812,5.803752899169922,2.3268558979034424,2.2523767948150635,-3.062145471572876,-1110.052978515625,606.6881103515625,1413.5736083984375
25860,4.621762752532959,-11.682761192321777,4.961137294769287,2.0386033058166504,3.6135127544403076,-1.7558276653289795,-1110.3121337890625,604.2998046875,1410.5814208984375
25860,3.883495330810547,-8.296133995056152,3.5449981689453125,1.750715732574463,3.329400062561035,-0.7479571104049683,-1108.4742431640625,602.1004638671875,1408.8212890625
25860,3.956338405609131,-4.138787746429443,2.5644466876983643,1.651763677597046,1.7294690608978271,-0.4442518353462219,-1106.5718994140625,600.09326171875,1407.992919921875
25860,4.936808109283447,-0.6208174824714661,2.3691153526306152,1.5750422477722168,-0.2640827000141144,-0.8487616181373596,-1106.18212890625,598.1080322265625,1407.537841796875
25860,6.359772682189941,1.076062798500061,2.8904473781585693,1.2867603302001953,-1.8371548652648926,-1.5149469375610352,-1107.813720703125,596.1122436523438,1407.278076171875
25860,7.867897033691406,0.6988037824630737,3.8779075145721436,0.7948174476623535,-2.4087228775024414,-1.793943166732788,-1110.7198486328125,594.2400512695312,1407.2655029296875
25860,9.021663665771484,-0.8804272413253784,4.8888163566589355,0.28603339195251465,-1.9343864917755127,-1.4958105087280273,-1113.63232421875,592.738525390625,1407.494873046875
25860,9.384668350219727,-2.4784793853759766,5.580479621887207,-0.0121159628033638,-0.992851972579956,-0.9741466045379639,-1115.765380859375,591.69482421875,1407.9482421875
25860,8.94575309753418,-3.434575319290161,5.892052173614502,-0.002994847483932972,-0.19955062866210938,-0.6153203248977661,-1117.006591796875,591.0337524414062,1408.5196533203125
25860,8.027765274047852,-3.5075490474700928,5.906440734863281,0.21315626800060272,0.17057830095291138,-0.5042680501937866,-1117.7481689453125,590.5209350585938,1408.9359130859375
25860,7.1338701248168945,-2.936868190765381,5.743727207183838,0.46623286604881287,0.04709169268608093,-0.573265016078949,-1118.4102783203125,589.8326416015625,1409.133056640625
25860,6.850673198699951,-2.26414155960083,5.581627368927002,0.6341724395751953,-0.39328402280807495,-0.7016018033027649,-1119.226806640625,588.8978881835938,1409.288818359375
25860,7.26551628112793,-1.7086256742477417,5.420647144317627,0.616897702217102,-0.7423074245452881,-0.6647540330886841,-1120.071533203125,587.964599609375,1409.4970703125
25860,8.065281867980957,-1.3285645246505737,5.209014415740967,0.40168002247810364,-0.7096902132034302,-0.4173871874809265,-1120.7723388671875,587.2943725585938,1409.7347412109375
25860,8.801969528198242,-1.1635799407958984,5.027655601501465,0.15001215040683746,-0.3143806457519531,-0.11128464341163635,-1121.171630859375,586.9522705078125,1409.8349609375
25860,9.062185287475586,-1.18644380569458,4.948500633239746,0.0021880967542529106,0.1255493462085724,0.12227965891361237,-1121.2706298828125,586.8893432617188,1409.74267578125
25860,8.788477897644043,-1.3093538284301758,4.976114273071289,-0.06952862441539764,0.281007319688797,0.24585512280464172,-1121.1910400390625,587.0296630859375,1409.6226806640625
25860,8.302445411682129,-1.4801788330078125,5.064026355743408,-0.08004028350114822,0.14944830536842346,0.2318630963563919,-1121.0926513671875,587.30419921875,1409.6314697265625
27361,7.976367473602295,-1.607523798942566,5.155577659606934,-0.0018864693120121956,-0.06872572749853134,0.051622986793518066,-1121.148681640625,587.504638671875,1409.75048828125
27361,7.928738594055176,-1.5839545726776123,5.201659202575684,0.17567789554595947,-0.1993330717086792,-0.26497718691825867,-1121.404541015625,587.3684692382812,1409.7484130859375
27361,8.06888198852539,-1.3813587427139282,5.169528961181641,0.3685109317302704,-0.2263326793909073,-0.5850972533226013,-1121.7159423828125,586.6282958984375,1409.466064453125
27361,8.253639221191406,-1.0641796588897705,5.087571144104004,0.4816591441631317,-0.2250085473060608,-0.7276120185852051,-1121.96533203125,585.3897094726562,1409.00390625
27361,8.410202026367188,-0.7238060235977173,5.022402286529541,0.4987522065639496,-0.166035994887352,-0.6532865166664124,-1122.1207275390625,584.2448120117188,1408.62451171875
27361,8.51196575164795,-0.4161234200000763,5.002163410186768,0.4356294274330139,-0.007000066339969635,-0.4963277280330658,-1122.205810546875,583.576171875,1408.5333251953125
27361,8.54539966583252,-0.11739885807037354,4.961005687713623,0.23017947375774384,0.2249128818511963,-0.3429070711135864,-1122.2305908203125,583.3877563476562,1408.59130859375
27361,8.563325881958008,0.2378600537776947,4.814322471618652,-0.09151719510555267,0.39786297082901,-0.16642926633358002,-1122.0833740234375,583.7147216796875,1408.5826416015625
27361,8.583600997924805,0.8347829580307007,4.37822151184082,-0.36482879519462585,0.44079628586769104,0.017171204090118408,-1121.7208251953125,584.4097900390625,1408.35400390625
27361,8.567298889160156,1.7347530126571655,3.582697868347168,-0.5565406084060669,0.2570585608482361,0.10404186695814133,-1121.3294677734375,585.2567749023438,1407.97314453125
27361,8.742754936218262,2.7378790378570557,2.5675487518310547,-0.680301308631897,-0.2133924514055252,-0.003246922045946121,-1121.5400390625,586.12744140625,1407.82568359375
