time_ms,acc_x_mg,acc_y_mg,acc_z_mg,gyro_x_mdps,gyro_y_mdps,gyro_z_mdps,mag_x_mgauss,mag_y_mgauss,mag_z_mgauss
1731694724200,0.0003371391212567687,-0.00081990024773404,0.00026395314489491284,-2.7860573936777655e-07,4.5586830310639925e-06,1.3858506235919776e-06,-1105.2286376953125,632.9058227539062,1446.9749755859375
1731694724200,0.078519307076931,-0.18943601846694946,0.06108815222978592,1.6470105038024485e-05,0.001065676799044013,0.00016204749408643693,-1105.3935546875,633.3191528320312,1448.25634765625
1731694724200,0.5665611028671265,-1.362399935722351,0.43930667638778687,0.00027510838117450476,0.007447411306202412,9.570131078362465e-05,-1105.059326171875,633.1828002929688,1446.9073486328125
1731694724200,1.5534892082214355,-3.7169365882873535,1.1968002319335938,0.0002720082411542535,0.018411021679639816,-0.0008230619132518768,-1104.5570068359375,633.074462890625,1446.5386962890625
1731694724200,2.7035255432128906,-6.438713550567627,2.0676941871643066,-0.0012231445871293545,0.03106355480849743,-0.0002940385602414608,-1104.9171142578125,632.19921875,1447.227294921875
1731694724200,3.5759167671203613,-8.537171363830566,2.7387337684631348,-0.004493872169405222,0.04196024313569069,0.0031001917086541653,-1104.691162109375,632.7894287109375,1447.2532958984375
1731694724200,3.9680817127227783,-9.540545463562012,3.060891628265381,-0.006536629982292652,0.04397301375865936,0.005514406133443117,-1104.98291015625,632.9058227539062,1447.1470947265625
1731694724200,3.9584717750549316,-9.588127136230469,3.081010341644287,-0.005059177055954933,0.036019716411828995,0.00562467984855175,-1105.013427734375,632.7352294921875,1446.6676025390625
1731694724200,3.754826068878174,-9.152139663696289,2.954648971557617,-0.0030275853350758553,0.021730326116085052,0.005568684544414282,-1104.6644287109375,632.7252807617188,1446.1693115234375
1731694724200,3.5632452964782715,-8.69644546508789,2.826211929321289,-0.0027978215366601944,0.005526581779122353,0.0053204260766506195,-1104.9058837890625,633.08447265625,1447.036865234375
1731694724200,3.4913625717163086,-8.46963882446289,2.765317440032959,-0.006788524799048901,-0.00719592347741127,0.005507184192538261,-1104.398681640625,632.7974853515625,1446.835693359375
1731694724200,3.528106451034546,-8.494357109069824,2.7726712226867676,-0.010731322690844536,-0.010838777758181095,0.007474328391253948,-1105.664794921875,632.9699096679688,1447.7723388671875
1731694724200,3.600489377975464,-8.640412330627441,2.810697078704834,-0.007771321106702089,-0.005169849842786789,0.008850200101733208,-1105.6851806640625,633.7667236328125,1448.3240966796875
1731694724200,3.654855251312256,-8.75891399383545,2.8435277938842773,0.0014226370258256793,0.0026036114431917667,0.007705780677497387,-1105.0806884765625,632.861572265625,1447.4609375
1731694724200,3.6733450889587402,-8.798538208007812,2.8561227321624756,0.00832721870392561,0.0077009042724967,0.006570165976881981,-1105.5418701171875,632.7009887695312,1447.422119140625
1731694724200,3.6545228958129883,-8.78426742553711,2.8507843017578125,0.007533067371696234,0.011528460308909416,0.004562889225780964,-1105.9364013671875,633.8209228515625,1448.5086669921875
1731694724200,3.6123573780059814,-8.746309280395508,2.837521553039551,-0.0007302078884094954,0.011396878398954868,0.002864269772544503,-1105.146728515625,632.9058227539062,1447.0323486328125
1731694724200,3.57839298248291,-8.718421936035156,2.8271865844726562,-0.016231181100010872,0.005333568900823593,0.003859125077724457,-1106.3057861328125,633.96533203125,1449.21044921875
1731694724200,3.5860469341278076,-8.715194702148438,2.8231308460235596,-0.028563804924488068,0.00510640861466527,0.00748896598815918,-1104.10107421875,633.6204833984375,1447.108154296875
1731694724200,3.622534990310669,-8.720484733581543,2.8262827396392822,-0.028833163902163506,0.026072271168231964,0.013184936717152596,-1105.222412109375,633.6384887695312,1446.4429931640625
1731694724200,3.6548569202423096,-8.724802017211914,2.8312950134277344,-0.022522946819663048,0.0709780603647232,0.017985770478844643,-1105.4952392578125,633.9093017578125,1448.052978515625
1731694724200,3.656364917755127,-8.735016822814941,2.8340392112731934,-0.025511056184768677,0.12483936548233032,0.02241307497024536,-1105.670166015625,633.355224609375,1448.302734375
1731694724200,3.64591908454895,-8.753474235534668,2.8336126804351807,-0.046997688710689545,0.17648693919181824,0.029208170250058174,-1105.63818359375,632.9058227539062,1446.688232421875
1731694724200,3.6540677547454834,-8.770977973937988,2.8351619243621826,-0.0854896754026413,0.22973790764808655,0.034236155450344086,-1106.043212890625,633.59619140625,1447.615234375
1731694724200,3.7529354095458984,-8.799294471740723,2.882077932357788,-0.15248627960681915,0.31867098808288574,0.03553351014852524,-1106.982177734375,633.9752807617188,1449.479248046875
1731694724200,3.9229469299316406,-8.782903671264648,3.0309500694274902,-0.2479260414838791,0.5634380578994751,0.03173470497131348,-1107.303955078125,632.5142822265625,1446.974853515625
1731694724200,3.9956891536712646,-8.759979248046875,3.13525652885437,-0.3661147356033325,0.9916206002235413,-0.040042683482170105,-1107.0875244140625,632.261474609375,1445.4454345703125
1731694724200,3.807422161102295,-8.78827953338623,3.1703145503997803,-0.4698895812034607,1.405346393585205,-0.19471478462219238,-1109.2498779296875,631.38623046875,1444.8721923828125
1731694724200,3.322178840637207,-8.776344299316406,3.198463201522827,-0.5088949203491211,1.6221861839294434,-0.4320858120918274,-1112.5809326171875,630.934326171875,1445.61962890625
1731694724200,2.705657958984375,-8.886761665344238,3.1801464557647705,-0.4578816294670105,1.522587776184082,-0.7480760216712952,-1114.4677734375,629.77392578125,1446.0478515625
1731694724200,2.3635473251342773,-9.105518341064453,3.129923105239868,-0.301573246717453,1.109284520149231,-1.0017582178115845,-1115.183349609375,629.5572509765625,1444.10595703125
1731694724200,2.532968521118164,-9.30507755279541,3.089224338531494,-0.08315487951040268,0.5460090041160583,-1.0329179763793945,-1115.2342529296875,629.8523559570312,1444.004150390625
1731694724200,3.143887996673584,-9.488417625427246,3.0801286697387695,0.1281958371400833,0.052442848682403564,-0.803623378276825,-1116.136474609375,629.6033325195312,1444.421142578125
1731694724200,3.8229169845581055,-9.556171417236328,3.128424644470215,0.28824546933174133,-0.20888125896453857,-0.42318013310432434,-1114.8486328125,629.2142944335938,1442.0589599609375
1731694724200,4.128210067749023,-9.315171241760254,3.2691750526428223,0.3762858808040619,-0.21231533586978912,-0.06709279119968414,-1114.8848876953125,628.435546875,1441.5875244140625
1731694724200,3.91788649559021,-8.721929550170898,3.4676342010498047,0.38147979974746704,-0.06772686541080475,0.12586814165115356,-1115.5711669921875,629.3406372070312,1442.3934326171875
1731694724200,3.4798481464385986,-7.987417697906494,3.598799705505371,0.30417197942733765,0.0852799341082573,0.0866556242108345,-1117.657470703125,628.7261962890625,1442.9320068359375
1731694724200,3.1622636318206787,-7.5285725593566895,3.551560163497925,0.17589731514453888,0.1664886325597763,-0.17045356333255768,-1118.780029296875,628.4952392578125,1443.3148193359375
1731694724200,3.2281556129455566,-7.577080726623535,3.3708853721618652,0.06720823794603348,0.1310824602842331,-0.46871256828308105,-1118.63134765625,627.3753662109375,1442.056396484375
1731694725700,3.65494704246521,-7.915685653686523,3.1909983158111572,0.02986062318086624,-0.006444714963436127,-0.5811724662780762,-1118.65283203125,628.25439453125,1443.8304443359375
1731694725700,4.221154689788818,-8.204805374145508,3.1001148223876953,0.05927949398756027,-0.1783122420310974,-0.40929916501045227,-1116.87890625,627.91943359375,1442.168701171875
1731694725700,4.622959613800049,-8.222850799560547,3.088022232055664,0.1213853508234024,-0.3010519742965698,-0.05174834653735161,-1115.7718505859375,628.4373779296875,1442.331298828125
1731694725700,4.760380744934082,-8.100903511047363,3.085601806640625,0.16470006108283997,-0.3431732654571533,0.2998007833957672,-1115.263671875,629.2684326171875,1442.1285400390625
1731694725700,4.70016622543335,-8.01021671295166,3.1043801307678223,0.1606929898262024,-0.2932755947113037,0.5103431344032288,-1114.889892578125,629.4832153320312,1442.4664306640625
1731694725700,4.440505027770996,-7.949566841125488,3.1355557441711426,0.11448745429515839,-0.1586589217185974,0.5553876757621765,-1114.1002197265625,630.0994873046875,1442.384765625
1731694725700,4.173126697540283,-7.845703601837158,3.172396183013916,0.051269419491291046,-0.015865996479988098,0.4655075967311859,-1114.6282958984375,629.5274047851562,1442.267333984375
1731694725700,4.074368953704834,-7.611692428588867,3.246659278869629,-0.004854036960750818,0.0857296958565712,0.28764015436172485,-1115.9239501953125,630.316162109375,1442.548583984375
1731694725700,4.225347518920898,-7.390981674194336,3.2967872619628906,-0.05593903362751007,0.15661174058914185,0.06283479928970337,-1115.966064453125,629.7982177734375,1443.131591796875
1731694725700,4.5631632804870605,-7.311093807220459,3.326612949371338,-0.13527582585811615,0.2142859846353531,-0.14931392669677734,-1116.71630859375,628.8706665039062,1444.5516357421875
1731694725700,4.840105056762695,-7.406243324279785,3.317997932434082,-0.24911490082740784,0.2688203752040863,-0.2913610339164734,-1115.4912109375,628.9671630859375,1444.0225830078125
1731694725700,4.967652320861816,-7.748141288757324,3.229126453399658,-0.3809396028518677,0.2892223000526428,-0.3234247863292694,-1116.639404296875,628.386962890625,1444.09326171875
1731694725700,4.980510711669922,-8.242247581481934,3.104491949081421,-0.4761291444301605,0.27880269289016724,-0.24581784009933472,-1116.6541748046875,629.4608154296875,1444.462890625
1731694725700,4.880105972290039,-8.700506210327148,2.982936143875122,-0.47192779183387756,0.26653510332107544,-0.11842216551303864,-1116.06494140625,628.3048095703125,1443.2728271484375
1731694725700,4.704404354095459,-8.95145320892334,2.9115235805511475,-0.3642975986003876,0.2609655261039734,-0.011016372591257095,-1116.884765625,629.3804931640625,1444.4434814453125
1731694725700,4.487102508544922,-8.967910766601562,2.9122543334960938,-0.19844505190849304,0.25976231694221497,0.037061288952827454,-1116.9873046875,629.1837158203125,1444.4158935546875
1731694725700,4.262723445892334,-8.81832218170166,2.9715750217437744,-0.036633580923080444,0.24153439700603485,0.017895780503749847,-1116.3670654296875,628.3228149414062,1443.181396484375
1731694725700,4.173988342285156,-8.63484001159668,3.0617423057556152,0.06272738426923752,0.20133700966835022,-0.0376310870051384,-1116.8887939453125,630.0148315429688,1443.926513671875
1731694725700,4.275729179382324,-8.5455904006958,3.117846965789795,0.06510031223297119,0.20176462829113007,-0.01991252601146698,-1114.383056640625,630.934326171875,1444.3577880859375
1731694725700,4.322194576263428,-8.466887474060059,3.0468454360961914,-0.048257891088724136,0.26827147603034973,0.193904846906662,-1113.9276123046875,632.01806640625,1445.79931640625
1731694725700,4.154917240142822,-8.352771759033203,2.8219871520996094,-0.2424771785736084,0.28304725885391235,0.5238040685653687,-1111.9044189453125,631.2554931640625,1445.525146484375
1731694725700,3.890305757522583,-8.299986839294434,2.494418144226074,-0.39755159616470337,0.07918879389762878,0.7452999949455261,-1113.439208984375,632.2645874023438,1449.809326171875
1731694725700,3.8946938514709473,-8.373015403747559,2.2246599197387695,-0.46125373244285583,-0.34832507371902466,0.6972577571868896,-1112.2193603515625,631.00830078125,1447.7181396484375
1731694725700,4.269114017486572,-8.61239242553711,2.0532703399658203,-0.4106678366661072,-0.6720834970474243,0.42784059047698975,-1112.6497802734375,631.3494873046875,1448.3330078125
1731694725700,4.542961597442627,-8.752864837646484,1.9368046522140503,-0.229192852973938,-0.6782355904579163,0.1384870707988739,-1111.89599609375,631.849365234375,1448.1282958984375
1731694725700,4.3490142822265625,-8.649676322937012,1.9324744939804077,0.004526887089014053,-0.4672539532184601,-0.030933953821659088,-1112.3154296875,631.8755493164062,1447.33251953125
1731694725700,3.806788921356201,-8.327241897583008,2.1998281478881836,0.19310881197452545,-0.23121197521686554,-0.10559055209159851,-1113.701171875,630.026611328125,1448.2657470703125
1731694725700,3.1845672130584717,-7.919626712799072,2.6839985847473145,0.2236943393945694,-0.039806678891181946,-0.17962311208248138,-1113.4150390625,630.8333740234375,1449.774658203125
1731694725700,2.6421852111816406,-7.6702680587768555,3.146876335144043,0.012057723477482796,0.09962103515863419,-0.2533474564552307,-1113.88818359375,630.86328125,1451.670654296875
1731694725700,2.3214972019195557,-7.738290309906006,3.338409185409546,-0.3957395851612091,0.18936645984649658,-0.26165276765823364,-1113.2235107421875,630.1748046875,1452.2904052734375
1731694725700,2.3296713829040527,-8.197572708129883,3.117948532104492,-0.8264713883399963,0.25279325246810913,-0.17844834923744202,-1112.0770263671875,629.1812744140625,1452.5711669921875
1731694725700,2.5982933044433594,-8.981759071350098,2.51033353805542,-1.0973883867263794,0.27867481112480164,-0.036246538162231445,-1112.101806640625,630.819091796875,1453.303955078125
1731694725700,3.0572476387023926,-10.002547264099121,1.8357322216033936,-1.0784968137741089,0.24569347500801086,0.1370125710964203,-1108.400146484375,633.44482421875,1453.073486328125
1731694725700,3.390652894973755,-10.900798797607422,1.326137900352478,-0.708093523979187,0.18874582648277283,0.5186124444007874,-1104.327392578125,632.724609375,1452.4871826171875
1731694725700,3.335742712020874,-11.032525062561035,1.0313007831573486,-0.19735121726989746,0.03474849462509155,1.0584187507629395,-1104.125,633.1578369140625,1455.5107421875
1731694725700,2.9090609550476074,-10.438238143920898,0.9349346160888672,0.0845591127872467,-0.26037490367889404,1.3523061275482178,-1103.14111328125,633.9447021484375,1456.0233154296875
1731694725700,2.281270980834961,-9.831233978271484,0.9549344778060913,0.05413638800382614,-0.6220703125,1.2387773990631104,-1104.93896484375,633.284912109375,1449.699462890625
1731694725700,1.6993930339813232,-9.522307395935059,1.0135186910629272,0.3235597014427185,-1.0142260789871216,0.6395715475082397,-1105.887939453125,635.071533203125,1447.3934326171875
1731694725700,1.5202319622039795,-9.405966758728027,1.269057273864746,1.1290558576583862,-1.326340675354004,-0.143687903881073,-1100.7530517578125,634.39111328125,1450.5208740234375
1731694727200,1.7554740905761719,-9.301258087158203,1.7595559358596802,1.5109907388687134,-1.543323040008545,-0.4083094596862793,-1093.9105224609375,634.1078491210938,1457.485595703125
1731694727200,2.3713550567626953,-9.400958061218262,2.158525228500366,0.7723054885864258,-1.7022041082382202,0.12452845275402069,-1093.5487060546875,634.1819458007812,1459.583984375
1731694727200,2.862902879714966,-9.75597095489502,2.251804828643799,-0.5106847286224365,-1.6122804880142212,0.9508152008056641,-1095.6236572265625,634.4527587890625,1459.9322509765625
1731694727200,2.8328604698181152,-9.99368667602539,1.9676103591918945,-1.3583338260650635,-1.2410199642181396,1.2978867292404175,-1097.010498046875,633.8607177734375,1457.728515625
1731694727200,2.4800281524658203,-9.825896263122559,1.3954854011535645,-1.311834692955017,-0.7554824352264404,0.8636502623558044,-1096.892822265625,633.64599609375,1457.7349853515625
1731694727200,2.218505620956421,-9.414447784423828,0.723840594291687,-0.7097018957138062,-0.27237236499786377,0.11811535060405731,-1093.9854736328125,634.1215209960938,1460.9052734375
1731694727200,2.1309146881103516,-8.998978614807129,0.05045878887176514,-0.19617533683776855,0.20172013342380524,-0.18789298832416534,-1094.8958740234375,633.60986328125,1458.8929443359375
1731694727200,2.110041379928589,-8.994989395141602,-0.534565806388855,0.014512788504362106,0.5879328846931458,-0.06690617650747299,-1096.4862060546875,633.3546142578125,1460.8154296875
1731694727200,2.0965144634246826,-9.418075561523438,-0.8073446750640869,0.005439393222332001,0.804907500743866,0.15377873182296753,-1093.0699462890625,633.5855712890625,1462.03857421875
1731694727200,1.9131518602371216,-9.9107084274292,-0.6706806421279907,-0.19986623525619507,0.8528426885604858,0.4216613173484802,-1094.139404296875,634.4265747070312,1461.4737548828125
1731694727200,1.5538626909255981,-10.232917785644531,-0.29920268058776855,-0.3802878260612488,0.7295523285865784,0.5849460363388062,-1092.9351806640625,633.9951171875,1460.800048828125
1731694727200,1.2289655208587646,-10.236054420471191,0.01239919662475586,-0.3413407504558563,0.5068700313568115,0.5698735117912292,-1092.958740234375,634.6818237304688,1459.2645263671875
1731694727200,1.0214941501617432,-10.045522689819336,0.1730438470840454,-0.0653618723154068,0.2826864421367645,0.41545602679252625,-1094.756591796875,635.578857421875,1459.9144287109375
1731694727200,0.9834874868392944,-9.819253921508789,0.18568873405456543,0.2474408596754074,0.14863699674606323,0.18356232345104218,-1093.505859375,634.8243408203125,1458.47705078125
1731694727200,1.0187852382659912,-9.593911170959473,0.16217362880706787,0.3829828202724457,0.15609191358089447,0.012473499402403831,-1094.556884765625,634.8262939453125,1459.106201171875
1731694727200,1.0145742893218994,-9.43027114868164,0.215590238571167,0.32263699173927307,0.2515644431114197,-0.05383773520588875,-1094.8436279296875,635.0950927734375,1459.3414306640625
1731694727200,0.9160363078117371,-9.390920639038086,0.3851267099380493,0.18151924014091492,0.3465630114078522,-0.04389902576804161,-1094.10546875,634.6818237304688,1458.4615478515625
1731694727200,0.6700233817100525,-9.461294174194336,0.6941133737564087,0.046254850924015045,0.3770219683647156,-0.0007679536938667297,-1094.3157958984375,635.3360595703125,1459.2847900390625
1731694727200,0.3890693783760071,-9.628945350646973,0.9846305251121521,-0.045693930238485336,0.3243390917778015,0.05259651318192482,-1093.884765625,635.6572875976562,1459.01806640625
1731694727200,0.2043522596359253,-9.81505012512207,1.1056660413742065,-0.04900682717561722,0.21957777440547943,0.11875636875629425,-1093.9923095703125,635.3080444335938,1458.6485595703125
1731694727200,0.15139436721801758,-9.895668983459473,1.0614638328552246,0.0006815856322646141,0.11413206160068512,0.1727212816476822,-1093.147216796875,635.1194458007812,1458.6619873046875
1731694727200,0.2205028533935547,-9.889533042907715,0.9167548418045044,0.04315746948122978,0.04639919847249985,0.1974891722202301,-1092.7520751953125,635.6553955078125,1458.4464111328125
1731694727200,0.321138858795166,-9.854310989379883,0.7847046256065369,0.05390192195773125,0.026406321674585342,0.21530885994434357,-1091.3328857421875,634.39111328125,1457.1170654296875
1731694727200,0.4064415693283081,-9.848244667053223,0.7107797265052795,0.0429261289536953,0.03076380118727684,0.21638676524162292,-1091.9012451171875,634.8748168945312,1457.231201171875
1731694727200,0.5030969381332397,-9.878302574157715,0.6591447591781616,0.03663385659456253,0.04384548217058182,0.1711665838956833,-1092.5887451171875,635.862060546875,1459.259033203125
1731694727200,0.5811036825180054,-9.848422050476074,0.6524475812911987,0.04269709438085556,0.06335417926311493,0.11056096851825714,-1092.0186767578125,635.4207153320312,1457.3990478515625
1731694727200,0.6045289635658264,-9.655904769897461,0.7436748743057251,0.06499616801738739,0.07526957243680954,0.08250295370817184,-1091.8585205078125,636.7174072265625,1457.3446044921875
1731694727200,0.5762931108474731,-9.222444534301758,0.9545435905456543,0.12694072723388672,0.04463660344481468,0.09751630574464798,-1090.371826171875,635.9891357421875,1455.5701904296875
1731694727200,0.608113169670105,-8.49830436706543,1.258260726928711,0.28394949436187744,-0.08391863852739334,0.18195608258247375,-1088.3507080078125,636.5655517578125,1453.3809814453125
1731694727200,0.9673622250556946,-7.685258388519287,1.4415807723999023,0.5033987760543823,-0.28198307752609253,0.3382906913757324,-1088.3651123046875,637.9705810546875,1453.9248046875
1731694727200,1.4942340850830078,-7.161004543304443,1.425933599472046,0.6858591437339783,-0.38193729519844055,0.5109366178512573,-1084.2877197265625,636.7405395507812,1453.3319091796875
1731694727200,1.3701510429382324,-7.0470099449157715,1.5467208623886108,0.6734360456466675,-0.2956150770187378,0.6945499777793884,-1088.214599609375,637.2242431640625,1451.094482421875
1731694727200,0.3509087562561035,-7.484153747558594,1.8334949016571045,0.48871514201164246,-0.22277165949344635,0.5367987155914307,-1089.8233642578125,636.60791015625,1450.6025390625
1731694727200,-0.6621333360671997,-8.516334533691406,1.996951699256897,0.34549686312675476,-0.36253777146339417,-0.05765899270772934,-1090.6182861328125,637.5771484375,1452.435302734375
1731694727200,-0.9181303381919861,-9.848734855651855,2.0224852561950684,0.22103971242904663,-0.5888251066207886,-0.637353777885437,-1089.471435546875,637.9083251953125,1453.412353515625
1731694727200,-0.43570029735565186,-10.983733177185059,2.0835022926330566,0.08626142144203186,-0.6482471227645874,-0.7116038799285889,-1085.5523681640625,637.8243408203125,1453.5689697265625
1731694727200,0.16108858585357666,-11.517502784729004,2.237222671508789,-0.03785797953605652,-0.42309579253196716,-0.20447003841400146,-1084.16748046875,637.35498046875,1451.4168701171875
1731694727200,0.23606455326080322,-11.32720947265625,2.4277567863464355,-0.06035953387618065,-0.05889677256345749,0.4064390957355499,-1089.496826171875,638.7338256835938,1448.741455078125
1731694727200,-0.13673794269561768,-10.7016019821167,2.707486629486084,0.18677549064159393,0.19436687231063843,0.4856472909450531,-1091.9031982421875,639.10107421875,1447.470703125
1731694728700,-0.5391186475753784,-9.93655014038086,3.0315544605255127,0.5352819561958313,0.332409143447876,0.04100170359015465,-1092.806396484375,638.0652465820312,1448.063232421875
1731694728700,-0.5844265818595886,-9.40422248840332,3.3988075256347656,0.6532661318778992,0.3604089617729187,-0.5443833470344543,-1090.4305419921875,638.7276000976562,1450.074951171875
1731694728700,-0.14272582530975342,-9.261714935302734,3.7735800743103027,0.3962521553039551,0.2855417728424072,-0.7401825785636902,-1087.60400390625,637.9208374023438,1450.745361328125
1731694728700,0.6051226854324341,-9.196640968322754,3.935910701751709,-0.06503228843212128,0.2349424958229065,-0.34734001755714417,-1085.375244140625,636.6826782226562,1449.4803466796875
1731694728700,1.348800778388977,-8.869699478149414,3.7330095767974854,-0.3804078996181488,0.30174553394317627,0.4135614037513733,-1082.91162109375,637.4154052734375,1450.669189453125
1731694728700,1.6849217414855957,-8.236052513122559,3.223724842071533,-0.41690850257873535,0.6157562732696533,1.2203279733657837,-1082.554931640625,637.0057373046875,1452.2518310546875
1731694728700,1.061694622039795,-7.765239238739014,2.578024387359619,-0.295468270778656,1.134189248085022,1.6878501176834106,-1082.4010009765625,636.7007446289062,1451.683349609375
1731694728700,-0.6305668354034424,-7.828110218048096,1.8327813148498535,-0.16712844371795654,1.5714514255523682,1.6011390686035156,-1083.8927001953125,637.2765502929688,1453.1162109375
1731694728700,-2.654261589050293,-8.474377632141113,1.1037516593933105,-0.08371587097644806,1.5896899700164795,0.9892863035202026,-1085.5960693359375,638.438720703125,1451.5389404296875
1731694728700,-4.070765018463135,-9.48770809173584,0.5767757296562195,-0.04618903994560242,1.1892186403274536,0.1305023431777954,-1087.5902099609375,640.5042724609375,1449.6798095703125
1731694728700,-4.38998556137085,-10.376998901367188,0.2409501075744629,-0.0395350456237793,0.6188467741012573,-0.6385906934738159,-1089.3232421875,642.2827758789062,1447.4473876953125
1731694728700,-3.7623627185821533,-10.908463478088379,0.07773089408874512,-0.060051143169403076,0.1412564218044281,-1.0943138599395752,-1091.1373291015625,642.14208984375,1447.9461669921875
1731694728700,-2.670276641845703,-11.11910629272461,0.07513582706451416,-0.1047581285238266,-0.055282384157180786,-1.146506428718567,-1093.21630859375,643.0472412109375,1447.777099609375
1731694728700,-1.6641712188720703,-11.005648612976074,0.11457955837249756,-0.14852218329906464,-0.007236160337924957,-0.9017422199249268,-1092.11865234375,642.1844482421875,1445.511962890625
1731694728700,-1.00580894947052,-10.74152660369873,0.1982741355895996,-0.18544091284275055,0.12462660670280457,-0.5494743585586548,-1092.0010986328125,641.6384887695312,1445.34423828125
1731694728700,-0.7497334480285645,-10.474346160888672,0.3049604892730713,-0.20661915838718414,0.2339942753314972,-0.24715140461921692,-1092.59423828125,641.359619140625,1443.750244140625
1731694728700,-0.7999675273895264,-10.339616775512695,0.4775569438934326,-0.23123031854629517,0.22341293096542358,-0.14572851359844208,-1091.6610107421875,640.0411376953125,1441.72021484375
1731694728700,-0.8390371799468994,-10.434852600097656,0.7416024208068848,-0.24183669686317444,0.1431136429309845,-0.1953568011522293,-1090.943359375,637.718505859375,1444.356689453125
1731694728700,-0.7501652836799622,-10.470237731933594,0.9234054684638977,-0.20017573237419128,0.08494142442941666,-0.21311283111572266,-1092.804931640625,638.6453857421875,1447.189453125
1731694728700,-0.6048761606216431,-10.23572826385498,0.939998984336853,-0.1390659660100937,0.06413350254297256,-0.1310039460659027,-1093.8349609375,633.19970703125,1447.440185546875
1731694728700,-0.4147499203681946,-9.374478340148926,0.7543067336082458,-0.15544095635414124,0.04857144132256508,-0.08573457598686218,-1089.9364013671875,634.4248657226562,1443.4415283203125
1731694728700,-0.19458019733428955,-7.8231072425842285,0.3933334946632385,-0.08174172043800354,-0.0037120161578059196,0.02168114110827446,-1090.342041015625,633.79052734375,1443.6719970703125
1731694728700,-0.07950842380523682,-6.4248809814453125,0.1664716601371765,0.14391082525253296,-0.06855867803096771,0.20641593635082245,-1088.696533203125,634.10986328125,1442.8909912109375
1731694728700,-0.1757185161113739,-6.20395565032959,0.2709900140762329,0.3197789788246155,-0.08883829414844513,0.3210219740867615,-1088.6697998046875,633.7145385742188,1441.6326904296875
1731694728700,-0.4438624382019043,-7.155354976654053,0.6396204829216003,0.33823657035827637,-0.06229065731167793,0.30536532402038574,-1089.1263427734375,634.575439453125,1442.9820556640625
1731694728700,-0.7406511902809143,-8.567825317382812,1.061234712600708,0.22763603925704956,-0.019331006333231926,0.1924704909324646,-1090.485107421875,635.1873779296875,1444.7481689453125
1731694728700,-0.9439608454704285,-9.706729888916016,1.3548707962036133,0.08023745566606522,0.012548847123980522,0.06016206741333008,-1088.45068359375,634.10986328125,1443.0631103515625
1731694728700,-1.016494870185852,-10.23004150390625,1.4635741710662842,-0.026543982326984406,0.02313534915447235,-0.030050290748476982,-1089.865478515625,634.2019653320312,1444.03759765625
1731694728700,-0.9912459850311279,-10.210779190063477,1.4332557916641235,-0.06540762633085251,0.017255399376153946,-0.059689220041036606,-1089.4395751953125,634.0394897460938,1443.255126953125
1731694728700,-0.9280999302864075,-9.930173873901367,1.3486967086791992,-0.051958948373794556,0.005415862426161766,-0.045207902789115906,-1089.5882568359375,634.2904052734375,1443.46728515625
1731694728700,-0.8764323592185974,-9.65427017211914,1.279358148574829,-0.018543457612395287,-0.0038308538496494293,-0.015394821763038635,-1089.05517578125,633.8148193359375,1442.7059326171875
1731694728700,-0.8562726378440857,-9.517271041870117,1.2516415119171143,0.008646977134048939,-0.007131524849683046,0.007646171376109123,-1088.0794677734375,634.3389892578125,1440.7894287109375
1731694728700,-0.8625408411026001,-9.520513534545898,1.2593977451324463,0.019074540585279465,-0.005667601712048054,0.01586340181529522,-1087.9306640625,634.4193115234375,1440.7513427734375
1731694728700,-0.879385232925415,-9.595843315124512,1.2827227115631104,0.015497859567403793,-0.002358526224270463,0.012325871735811234,-1087.37744140625,634.015869140625,1440.4842529296875
1731694728700,-0.8928436636924744,-9.671869277954102,1.3024142980575562,0.006263961549848318,0.0002951619680970907,0.004433215595781803,-1088.9576416015625,633.52783203125,1442.218017578125
1731694728700,-0.8975707292556763,-9.711135864257812,1.3114389181137085,-0.0014797630719840527,0.0012613466242328286,-0.0017908925656229258,-1088.9892578125,633.977294921875,1443.83251953125
1731694728700,-0.8949761986732483,-9.7114839553833,1.3105331659317017,-0.004734099376946688,0.0009082896285690367,-0.0040298691019415855,-1088.5784912109375,633.3572387695312,1442.0252685546875
1731694728700,-0.8894574046134949,-9.69137954711914,1.304294228553772,-0.004099591635167599,4.2509782360866666e-05,-0.0030131328385323286,-1090.736328125,634.910400390625,1444.7584228515625
1731694728700,-0.8848730325698853,-9.670493125915527,1.298974871635437,-0.0017205931944772601,-0.0006805983721278608,-0.0006958016310818493,-1088.2359619140625,633.8148193359375,1443.2794189453125
1731694730200,-0.8830433487892151,-9.659250259399414,1.2965550422668457,0.00047111662570387125,-0.0008933424251154065,0.0012377658858895302,-1088.481689453125,633.8148193359375,1443.107421875
1731694730200,-0.8838357925415039,-9.658226013183594,1.296664834022522,0.0015296625206246972,-0.0007185140857473016,0.002063272288069129,-1088.5584716796875,633.429443359375,1442.51953125
1731694730200,-0.885515034198761,-9.663461685180664,1.298003911972046,0.00150424730964005,-0.0004121026140637696,0.0019296520622447133,-1088.564208984375,633.6903076171875,1443.573974609375
1731694730200,-0.8855693936347961,-9.669655799865723,1.2989944219589233,0.0009094986598938704,-0.00020237731223460287,0.001352315885014832,-1088.2818603515625,633.0621948242188,1442.2989501953125
1731694730200,-0.8842570781707764,-9.673620223999023,1.3011962175369263,0.0002776597975753248,-0.00021370837930589914,0.0008280394249595702,-1088.8104248046875,632.69677734375,1442.8795166015625
1731694730200,-0.8821760416030884,-9.674688339233398,1.3033560514450073,-0.00012060451990691945,-0.0002856507489923388,0.0006269889418035746,-1088.4097900390625,633.1785888671875,1442.307373046875
1731694730200,-0.8804957270622253,-9.673739433288574,1.303218960762024,-0.0002294293517479673,-0.00036171218380331993,0.0007461598725058138,-1088.395263671875,632.9737548828125,1442.9840087890625
1731694730200,-0.8804039359092712,-9.672152519226074,1.302458643913269,-0.00013722112635150552,-0.000434250570833683,0.0010153506882488728,-1088.40966796875,633.509765625,1442.4814453125
1731694730200,-0.8810738325119019,-9.67115592956543,1.301168441772461,2.0399151253513992e-05,-0.00044928991701453924,0.0012298915535211563,-1088.1114501953125,633.257080078125,1441.009521484375
1731694730200,-0.881769061088562,-9.671185493469238,1.3004430532455444,0.00012431119102984667,-0.0004377548466436565,0.0013850587420165539,-1087.11376953125,633.895751953125,1437.84130859375
1731694730200,-0.8821579217910767,-9.671504974365234,1.3018157482147217,0.00013530507567338645,-0.0004221502458676696,0.001464888104237616,-1087.195556640625,634.2269287109375,1437.9581298828125
1731694730200,-0.8823599815368652,-9.671531677246094,1.3035088777542114,0.00012567121302708983,-0.00044040035572834313,0.0013976125046610832,-1089.7073974609375,633.5938110351562,1444.160400390625
1731694730200,-0.8830378651618958,-9.67131233215332,1.3043289184570312,0.00016857351874932647,-0.0005220775492489338,0.0013022832572460175,-1088.3839111328125,633.8590087890625,1442.7935791015625
1731694730200,-0.88401198387146,-9.671525001525879,1.3035149574279785,0.00021499638387467712,-0.0005444154958240688,0.0012481603771448135,-1088.4144287109375,634.0195922851562,1442.4881591796875
1731694730200,-0.8840320706367493,-9.67236328125,1.3010947704315186,0.0001898290211101994,-0.00046105380170047283,0.0012103288900107145,-1088.9642333984375,633.3330078125,1443.6221923828125
1731694730200,-0.8841458559036255,-9.673386573791504,1.299636960029602,0.00010261793795507401,-0.00033415353391319513,0.0012162317289039493,-1090.0341796875,634.380615234375,1443.75537109375
1731694730200,-0.884698748588562,-9.673538208007812,1.3004153966903687,2.4053679226199165e-05,-0.0002126022445736453,0.0012163142673671246,-1088.4808349609375,633.0703125,1441.5372314453125
1731694730200,-0.884580135345459,-9.672749519348145,1.3022050857543945,-9.921252058120444e-06,-0.00016245506412815303,0.0012010765494778752,-1088.281982421875,632.73095703125,1442.124755859375
1731694730200,-0.8840077519416809,-9.671530723571777,1.303748607635498,-3.886768172378652e-05,-0.00019752985099330544,0.0012029132340103388,-1089.7838134765625,633.5396728515625,1443.7467041015625
1731694730200,-0.883009672164917,-9.670514106750488,1.3040724992752075,-9.245092223864049e-05,-0.00025456101866438985,0.0012339699314907193,-1089.80908203125,634.1839599609375,1443.95703125
1731694730200,-0.882800817489624,-9.669522285461426,1.3033795356750488,-0.00014074314094614238,-0.00032855948666110635,0.0013112664455547929,-1089.193359375,634.1640014648438,1442.9033203125
1731694730200,-0.8837010860443115,-9.668482780456543,1.3022714853286743,-0.0001524292165413499,-0.0004250145284458995,0.001344518270343542,-1088.7938232421875,633.52783203125,1442.332763671875
1731694730200,-0.8846846222877502,-9.668190002441406,1.3005095720291138,-0.0001417835446773097,-0.000501977396197617,0.0012637838954105973,-1090.1416015625,634.0314331054688,1443.3858642578125
1731694730200,-0.8850845694541931,-9.668668746948242,1.299569845199585,-0.00014916036161594093,-0.0005049029714427888,0.0011353774461895227,-1088.338623046875,633.6181030273438,1443.251708984375
1731694730200,-0.8849872350692749,-9.6693696975708,1.3003584146499634,-0.00014594265667255968,-0.0004182491102255881,0.0010809862287715077,-1088.849365234375,634.0015258789062,1442.0633544921875
1731694730200,-0.8843247294425964,-9.669830322265625,1.3014450073242188,-0.0001014807348838076,-0.0002953273069579154,0.0011459144297987223,-1087.55712890625,633.9716796875,1440.7410888671875
1731694730200,-0.884199857711792,-9.669678688049316,1.3022876977920532,-6.061846579541452e-05,-0.00019136315677314997,0.0013192521873861551,-1087.7872314453125,633.6846923828125,1440.0234375
1731694730200,-0.8848258852958679,-9.669549942016602,1.3017851114273071,-5.113271618029103e-05,-0.00010893159196712077,0.0015114105772227049,-1089.00439453125,633.5197143554688,1442.8077392578125
1731694730200,-0.8856139779090881,-9.669605255126953,1.3005346059799194,-1.5260739019140601e-06,-0.00010198082600254565,0.0015631329733878374,-1088.640625,632.76708984375,1442.114013671875
1731694730200,-0.8851408362388611,-9.669313430786133,1.3004364967346191,6.936841236893088e-05,-0.000165044009918347,0.0014660153537988663,-1089.0360107421875,633.10009765625,1443.3758544921875
1731694730200,-0.882988691329956,-9.668937683105469,1.301337480545044,0.00010586652933852747,-0.0002562692970968783,0.0013967601116746664,-1089.0040283203125,634.1820068359375,1443.1558837890625
1731694730200,-0.8804565668106079,-9.669020652770996,1.3027392625808716,8.560708374716341e-05,-0.0003230771981179714,0.001475578173995018,-1091.279541015625,634.4185791015625,1444.4881591796875
1731694730200,-0.8785009384155273,-9.669301986694336,1.3040692806243896,6.571698759216815e-05,-0.00030889164190739393,0.0016413358971476555,-1090.0234375,635.141357421875,1444.0888671875
1731694730200,-0.8776800632476807,-9.670010566711426,1.3051204681396484,6.867919000796974e-05,-0.0002542202710174024,0.0017146461177617311,-1088.840576171875,633.5197143554688,1442.92236328125
1731694730200,-0.8780219554901123,-9.670581817626953,1.3057734966278076,4.954817268298939e-05,-0.0002244592906208709,0.0017047961009666324,-1088.2147216796875,633.8048095703125,1442.5517578125
1731694730200,-0.8797675371170044,-9.670999526977539,1.3054195642471313,-3.937482688343152e-06,-0.00023893658362794667,0.0016179766971617937,-1088.8914794921875,633.4835815429688,1442.6466064453125
1731694730200,-0.8822755813598633,-9.671199798583984,1.3044742345809937,-5.345065437722951e-05,-0.00027271744329482317,0.0014821866061538458,-1089.3377685546875,633.780517578125,1443.6326904296875
1731694730200,-0.883804440498352,-9.671006202697754,1.3040432929992676,-7.546969573013484e-05,-0.00026974151842296124,0.0013214625651016831,-1089.922119140625,633.888916015625,1443.944091796875
1731694730200,-0.883284330368042,-9.67094612121582,1.3044434785842896,-6.52612216072157e-05,-0.00022416679712478071,0.0012004870222881436,-1089.7830810546875,633.995361328125,1443.3968505859375
1731694731710,-0.8817665576934814,-9.67073917388916,1.3050419092178345,-2.718934410950169e-05,-0.00020543173013720661,0.0011906438739970326,-1088.9896240234375,633.6460571289062,1443.658447265625
1731694731710,-0.8800052404403687,-9.670523643493652,1.3049628734588623,-2.1427989850053564e-05,-0.0002073294308502227,0.0013590739108622074,-1088.2662353515625,632.7752075195312,1441.753662109375
1731694731710,-0.8791220188140869,-9.670488357543945,1.3044344186782837,-0.00012408880866132677,-0.00018596378504298627,0.001638086512684822,-1088.86474609375,633.4194946289062,1441.5623779296875
1731694731710,-0.879235565662384,-9.6701021194458,1.304011583328247,-0.00025403269683010876,-0.00019260382396169007,0.0017779180780053139,-1087.0538330078125,633.4500732421875,1438.97607421875
1731694731710,-0.8794375061988831,-9.669394493103027,1.303931713104248,-0.0003146312665194273,-0.00021111301612108946,0.0017037229845300317,-1088.462890625,632.4378051757812,1443.4290771484375
1731694731710,-0.8792138695716858,-9.668739318847656,1.304107666015625,-0.00031272321939468384,-0.00019198606605641544,0.0014554009540006518,-1088.96484375,633.20849609375,1444.14599609375
1731694731710,-0.8789652585983276,-9.668384552001953,1.3046987056732178,-0.00028175421175546944,-0.0001309049257542938,0.0012757619842886925,-1088.5950927734375,632.5261840820312,1442.5718994140625
1731694731710,-0.8786391019821167,-9.668168067932129,1.3048949241638184,-0.0002206192002631724,-0.00010367821960244328,0.001220138743519783,-1090.2254638671875,633.6578979492188,1444.9002685546875
1731694731710,-0.8781036734580994,-9.668009757995605,1.3039630651474,-9.915568807628006e-05,-0.00016379155567847192,0.0012128357775509357,-1088.9796142578125,633.0820922851562,1443.2952880859375
1731694731710,-0.8776059150695801,-9.667991638183594,1.3024394512176514,-3.6680834455182776e-05,-0.00024472252698615193,0.0013185713905841112,-1088.8193359375,633.1785888671875,1442.0206298828125
1731694731710,-0.8770161867141724,-9.668593406677246,1.3009899854660034,-8.901915862224996e-05,-0.00027280766516923904,0.0015328795416280627,-1088.71728515625,633.5819702148438,1442.7464599609375
1731694731710,-0.8762701749801636,-9.669698715209961,1.3005156517028809,-0.00016753650561440736,-0.00021877314429730177,0.0018111352110281587,-1089.039306640625,633.8590087890625,1442.334716796875
1731694731710,-0.875766932964325,-9.670669555664062,1.3015458583831787,-0.00016507357941009104,-9.82866040430963e-05,0.0019991726148873568,-1089.470703125,633.7444458007812,1443.299560546875
1731694731710,-0.8755158185958862,-9.670981407165527,1.3037290573120117,-9.512835822533816e-05,-1.459594932384789e-05,0.0019268632167950273,-1088.8914794921875,633.4835815429688,1442.6466064453125
1731694731710,-0.8757891654968262,-9.670594215393066,1.305424451828003,-2.3193057131720707e-05,-1.9387167412787676e-05,0.0016683941939845681,-1088.1021728515625,633.1063842773438,1442.0423583984375
1731694731710,-0.8768516182899475,-9.670255661010742,1.3063236474990845,-4.2580035369610414e-05,-7.410782563965768e-05,0.0014204063918441534,-1088.897216796875,633.7444458007812,1443.7010498046875
1731694731710,-0.8782583475112915,-9.670025825500488,1.3058654069900513,-0.00014090852346271276,-0.00011590322537813336,0.0013125501573085785,-1088.81005859375,633.6903076171875,1443.4019775390625
1731694731710,-0.8791331648826599,-9.670036315917969,1.3040499687194824,-0.00021400849800556898,-0.00016634087660349905,0.0013446718221530318,-1088.2548828125,633.660400390625,1441.563232421875
1731694731710,-0.8798514604568481,-9.670073509216309,1.3022786378860474,-0.00021904378081671894,-0.00021309788280632347,0.0014333039289340377,-1088.6544189453125,634.296630859375,1442.1337890625
1731694731710,-0.8807889819145203,-9.67005729675293,1.3013416528701782,-0.00018258925410918891,-0.0002074106887448579,0.0015271864831447601,-1088.1400146484375,634.3289794921875,1440.00439453125
1731694731710,-0.8813620805740356,-9.670304298400879,1.3015438318252563,-0.00016490108100697398,-0.00017756642773747444,0.0016438929596915841,-1089.72216796875,633.13623046875,1443.135498046875
1731694731710,-0.8807595372200012,-9.670899391174316,1.3027021884918213,-0.0001804418716346845,-0.0001269691565539688,0.001734797959215939,-1089.23974609375,633.6181030273438,1442.620849609375
1731694731710,-0.8786137104034424,-9.671307563781738,1.3035643100738525,-0.00023046560818329453,-3.969899262301624e-05,0.0017220168374478817,-1090.305908203125,634.238037109375,1443.96923828125
1731694731710,-0.8761926889419556,-9.671219825744629,1.3041138648986816,-0.0003032755048479885,2.8738228138536215e-05,0.0015723578399047256,-1090.3167724609375,634.3463745117188,1444.68212890625
1731694731710,-0.8750934600830078,-9.671209335327148,1.3049356937408447,-0.0003330949111841619,2.887513255700469e-05,0.0013678695540875196,-1088.6094970703125,633.0621948242188,1442.069580078125
1731694731710,-0.8749304413795471,-9.671425819396973,1.3060247898101807,-0.0002946026506833732,-6.71334273647517e-05,0.0012274449691176414,-1089.5684814453125,633.7001953125,1443.6134033203125
1731694731710,-0.8753408193588257,-9.67175006866455,1.3073773384094238,-0.00022000815079081804,-0.00020933298219460994,0.0012249670689925551,-1089.14306640625,633.7444458007812,1443.5289306640625
1731694731710,-0.8753964304924011,-9.671609878540039,1.308013916015625,-0.00012561400944832712,-0.0003044142504222691,0.001324561657384038,-1090.4510498046875,634.061279296875,1445.3968505859375
1731694731710,-0.875231146812439,-9.671370506286621,1.3070658445358276,-1.6006204532459378e-05,-0.00033824756974354386,0.001443205401301384,-1089.075927734375,633.6181030273438,1442.735595703125
1731694731710,-0.8749326467514038,-9.671075820922852,1.3049423694610596,0.00010791412933031097,-0.0003438029671087861,0.0015510348603129387,-1089.174072265625,633.4493408203125,1443.5732421875
1731694731710,-0.8752489686012268,-9.670546531677246,1.302118182182312,0.00018520244339015335,-0.00030816125217825174,0.0016840801108628511,-1088.281494140625,633.7245483398438,1442.647216796875
1731694731710,-0.8763552904129028,-9.670023918151855,1.300039291381836,0.00014075225044507533,-0.00024452508660033345,0.001805828302167356,-1089.8194580078125,634.0855712890625,1443.9718017578125
1731694731710,-0.877328634262085,-9.669997215270996,1.300014853477478,4.63225987914484e-05,-0.0001862680073827505,0.0018461389699950814,-1088.7171630859375,633.9131469726562,1442.9205322265625
1731694731710,-0.8765608668327332,-9.670748710632324,1.301147222518921,-4.066726251039654e-05,-0.00011607640772126615,0.0018452128861099482,-1089.0615234375,633.0820922851562,1443.2379150390625
1731694731710,-0.8751996755599976,-9.67128849029541,1.3028451204299927,-0.00011248551891185343,-4.502246156334877e-05,0.0018075809348374605,-1087.2813720703125,633.148681640625,1440.8701171875
1731694731710,-0.8746730089187622,-9.67088794708252,1.305145502090454,-0.00017070703324861825,-5.2876188419759274e-05,0.0017343363724648952,-1088.8681640625,634.1783447265625,1440.5211181640625
1731694731710,-0.8751512169837952,-9.669831275939941,1.3072633743286133,-0.00021720441873185337,-0.0001796762808226049,0.0016429944662377238,-1089.6612548828125,633.8085327148438,1444.268798828125
1731694731710,-0.8756604790687561,-9.668686866760254,1.308915138244629,-0.00020441488595679402,-0.00036736298352479935,0.0015289305010810494,-1089.1988525390625,633.886962890625,1443.0855712890625
1731694731710,-0.8760888576507568,-9.668108940124512,1.309340238571167,-0.00010696033132262528,-0.00049117102753371,0.0014237113064154983,-1089.886962890625,633.549560546875,1444.4168701171875
1731694733210,-0.8760190606117249,-9.668107032775879,1.3084872961044312,4.0483937482349575e-06,-0.0004975678748451173,0.001371482852846384,-1088.4661865234375,633.52783203125,1442.5621337890625
1731694733210,-0.8756406307220459,-9.668514251708984,1.3068848848342896,3.3801788958953694e-05,-0.00039040460251271725,0.0013657714007422328,-1088.4454345703125,633.7245483398438,1442.532470703125
1731694733210,-0.8748525977134705,-9.669052124023438,1.3053221702575684,1.1618678399827331e-05,-0.0002282346540596336,0.0013583014952018857,-1087.9803466796875,632.5884399414062,1442.740234375
1731694733210,-0.8739391565322876,-9.669546127319336,1.3041143417358398,-3.981908957939595e-05,-9.327869338449091e-05,0.0012599161127582192,-1089.9888916015625,633.8085327148438,1444.0394287109375
1731694733210,-0.8736620545387268,-9.670042991638184,1.3033320903778076,-7.73527572164312e-05,-2.037599915638566e-05,0.0010851884726434946,-1089.9329833984375,633.666015625,1444.482666015625
1731694733210,-0.8738833665847778,-9.670951843261719,1.303194284439087,-9.676572517491877e-05,4.354471457190812e-06,0.0009501063614152372,-1088.9593505859375,633.154296875,1443.7896728515625
1731694733210,-0.8743607401847839,-9.672131538391113,1.3037335872650146,-0.00013731584476772696,-1.3354001566767693e-05,0.0010317944688722491,-1089.8822021484375,633.3709106445312,1444.5843505859375
1731694733210,-0.875243067741394,-9.672555923461914,1.304446816444397,-0.00020336538727860898,-2.3456334020011127e-05,0.0013192197075113654,-1088.0213623046875,633.1885375976562,1443.32177734375
1731694733210,-0.8752093315124512,-9.672126770019531,1.304771065711975,-0.0002704188518691808,-4.48831997346133e-05,0.0016130433650687337,-1088.5283203125,632.9376831054688,1442.6507568359375
1731694733210,-0.8738570213317871,-9.671467781066895,1.304716944694519,-0.0002809894795063883,-0.000139245530590415,0.00174760224763304,-1090.46044921875,634.749755859375,1445.2359619140625
1731694733210,-0.8717139959335327,-9.670731544494629,1.3046518564224243,-0.00026367223472334445,-0.0002670716494321823,0.0016948303673416376,-1089.4449462890625,634.4248657226562,1443.78564453125
1731694733210,-0.8710598945617676,-9.67004680633545,1.3048114776611328,-0.000252255005761981,-0.0003501820610836148,0.0015450268983840942,-1088.126953125,633.5440673828125,1441.5548095703125
1731694733210,-0.8722153306007385,-9.669854164123535,1.3054122924804688,-0.00022083079966250807,-0.000371535774320364,0.0014291312545537949,-1088.237548828125,634.615966796875,1440.4923095703125
1731694733210,-0.8738186955451965,-9.670472145080566,1.3065465688705444,-0.00015394922229461372,-0.00032387697137892246,0.0014066770672798157,-1089.10791015625,633.4051513671875,1444.0018310546875
1731694733210,-0.8746280074119568,-9.671603202819824,1.307568073272705,-5.9484835219336674e-05,-0.00020627838966902345,0.0014652182580903172,-1088.69677734375,633.1163330078125,1442.368408203125
1731694733210,-0.874805212020874,-9.67282485961914,1.3081104755401611,-1.5186742530204356e-06,-8.630281081423163e-05,0.0015809375327080488,-1089.1937255859375,633.1705322265625,1442.380859375
1731694733210,-0.8747056722640991,-9.673346519470215,1.3075612783432007,-3.839506098302081e-05,-3.4719123505055904e-06,0.001766975037753582,-1088.7276611328125,633.4835815429688,1442.76123046875
1731694733210,-0.8743994832038879,-9.672846794128418,1.3063298463821411,-0.00013781979214400053,2.1417217794805765e-05,0.001954457024112344,-1091.059326171875,634.4005126953125,1444.522216796875
1731694733210,-0.8741081953048706,-9.671418190002441,1.3052581548690796,-0.00020629618666134775,-1.511693699285388e-05,0.002048119204118848,-1089.670654296875,634.4970703125,1444.10791015625
1731694733210,-0.87395840883255,-9.669923782348633,1.3044357299804688,-0.00025807120255194604,-9.125375072471797e-05,0.002090440597385168,-1089.7889404296875,634.256103515625,1444.4512939453125
1731694733210,-0.8747968673706055,-9.669000625610352,1.3039758205413818,-0.00027495253016240895,-0.00020697267609648407,0.002084364416077733,-1088.1434326171875,633.375244140625,1442.449951171875
1731694733210,-0.8768582940101624,-9.668851852416992,1.3040874004364014,-0.00024351186584681273,-0.00032140323310159147,0.0020165627356618643,-1090.5172119140625,633.7742919921875,1444.794189453125
1731694733210,-0.8784263730049133,-9.669431686401367,1.3043702840805054,-0.00018331731553189456,-0.00039888510946184397,0.0019326305482536554,-1088.3787841796875,633.4736328125,1442.2630615234375
1731694733210,-0.8787059783935547,-9.670348167419434,1.3043849468231201,-0.0001226056192535907,-0.0004289942735340446,0.001778639736585319,-1088.65625,633.923095703125,1443.7054443359375
1731694733210,-0.8784459829330444,-9.671202659606934,1.3040903806686401,-0.0001394257415086031,-0.0004011032870039344,0.0015871776267886162,-1090.618896484375,634.3644409179688,1444.5906982421875
1731694733210,-0.8778150081634521,-9.672601699829102,1.3034566640853882,-0.0001704842143226415,-0.00035490584559738636,0.0014873109757900238,-1090.5582275390625,634.3743896484375,1445.3756103515625
1731694733210,-0.8766028881072998,-9.674112319946289,1.302570104598999,-0.00015135560533963144,-0.00034888932714238763,0.001521380851045251,-1089.2703857421875,633.9853515625,1443.013427734375
1731694733210,-0.8763269186019897,-9.674520492553711,1.3017303943634033,-0.0001273655507247895,-0.0003479768056422472,0.0016561258817091584,-1087.7374267578125,633.802978515625,1441.521240234375
1731694733210,-0.8767983317375183,-9.67359733581543,1.302078127861023,-0.00015211166464723647,-0.0003063485200982541,0.0017467369325459003,-1088.91455078125,634.8326416015625,1441.459228515625
1731694733210,-0.8769488334655762,-9.672035217285156,1.3038747310638428,-0.0002009574673138559,-0.00021888708579353988,0.0017375452443957329,-1088.40966796875,633.509765625,1442.4814453125
1731694733210,-0.8761987090110779,-9.67100715637207,1.3055431842803955,-0.00022853349219076335,-0.00015410815831273794,0.001685908529907465,-1089.0137939453125,634.208251953125,1442.6468505859375
1731694733210,-0.876056969165802,-9.670737266540527,1.3060002326965332,-0.00023979120305739343,-0.0001248565677087754,0.001654576393775642,-1088.8603515625,633.7786865234375,1442.6021728515625
1731694733210,-0.8763773441314697,-9.670583724975586,1.3059139251708984,-0.00023373494332190603,-0.00010965304682031274,0.0016465081134811044,-1088.58935546875,633.465576171875,1442.738037109375
1731694733210,-0.8763672113418579,-9.67091178894043,1.3056049346923828,-0.00023203248565550894,-0.0001335420529358089,0.0016108772251755,-1089.0299072265625,634.3707275390625,1443.716064453125
1731694733210,-0.8757234215736389,-9.67128849029541,1.305506944656372,-0.00021669571287930012,-0.00021468906197696924,0.0015259872889146209,-1089.1627197265625,633.465576171875,1442.3365478515625
1731694733210,-0.8748242259025574,-9.671175003051758,1.3054293394088745,-0.00018739541701506823,-0.000317025842377916,0.0014460807433351874,-1088.87109375,634.2181396484375,1443.4891357421875
1731694733210,-0.8743323683738708,-9.670605659484863,1.3050912618637085,-0.00019042468920815736,-0.0003692581958603114,0.0014131799107417464,-1088.615478515625,633.322998046875,1443.1240234375
1731694733210,-0.874396800994873,-9.670279502868652,1.3052027225494385,-0.0002126037870766595,-0.0003451071970630437,0.0013971407897770405,-1088.845458984375,634.2362060546875,1443.6270751953125
1731694733210,-0.8746093511581421,-9.670975685119629,1.3050413131713867,-0.00022966058168094605,-0.0002977729309350252,0.0014064634451642632,-1090.1021728515625,634.0513305664062,1444.8985595703125
1731694734710,-0.87542325258255,-9.672183990478516,1.304148554801941,-0.0002163876488339156,-0.0002782490337267518,0.0014584254240617156,-1088.2872314453125,633.1163330078125,1442.6552734375
1731694734710,-0.8761759400367737,-9.67321491241455,1.3038101196289062,-0.0002149812353309244,-0.0002962278376799077,0.0015605873195454478,-1089.091796875,633.24267578125,1442.9326171875
1731694734710,-0.8757225275039673,-9.673335075378418,1.3046064376831055,-0.0002092361100949347,-0.0003616863687057048,0.0016132964519783854,-1088.8150634765625,633.5377197265625,1443.060302734375
1731694734710,-0.8742784857749939,-9.672429084777832,1.3062961101531982,-0.00017524258873891085,-0.00040919508319348097,0.0016213083872571588,-1088.9425048828125,633.1163330078125,1442.1964111328125
1731694734710,-0.8729106783866882,-9.671137809753418,1.3076145648956299,-0.00021211375133134425,-0.000393776164855808,0.0016023882199078798,-1088.3787841796875,633.4736328125,1442.2630615234375
1731694734710,-0.8716840744018555,-9.670744895935059,1.3073480129241943,-0.000300593237625435,-0.0003519786987453699,0.0014890388119965792,-1087.531005859375,632.9140625,1439.134521484375
1731694734710,-0.8709907531738281,-9.671368598937988,1.3059020042419434,-0.00034655514173209667,-0.00034323084400966763,0.001330618979409337,-1089.066162109375,633.5919189453125,1443.24462890625
1731694734710,-0.8708327412605286,-9.6728515625,1.304857611656189,-0.0003558135940693319,-0.00032295763958245516,0.001292500295676291,-1088.025634765625,633.1605224609375,1442.456298828125
1731694734710,-0.8712795972824097,-9.674331665039062,1.3039289712905884,-0.0003676190972328186,-0.00027792822220362723,0.0014185858890414238,-1088.7078857421875,632.8934326171875,1442.9073486328125
1731694734710,-0.8719954490661621,-9.67514705657959,1.3028602600097656,-0.00035706322523765266,-0.00022451713448390365,0.0016156318597495556,-1089.466552734375,633.4412841796875,1443.9908447265625
1731694734710,-0.872115433216095,-9.675016403198242,1.3019400835037231,-0.00032010109862312675,-0.00016000986215658486,0.001752859097905457,-1088.287841796875,632.9918212890625,1443.17919921875
1731694734710,-0.8715910911560059,-9.673779487609863,1.3016741275787354,-0.00028170409495942295,-8.836577762849629e-05,0.0017536565428599715,-1090.0198974609375,633.5134887695312,1444.083740234375
1731694734710,-0.871366024017334,-9.67204475402832,1.3020868301391602,-0.00024193673743866384,-7.293262751773e-05,0.0016310898354277015,-1088.5789794921875,633.56396484375,1442.7232666015625
1731694734710,-0.8715978264808655,-9.670877456665039,1.3023426532745361,-0.00020528081222437322,-0.00012158828030806035,0.0014908043667674065,-1088.548095703125,633.52783203125,1442.5047607421875
1731694734710,-0.8721429109573364,-9.67039966583252,1.3026123046875,-0.00021536520216614008,-0.00019285088637843728,0.0014170970534905791,-1088.892333984375,633.0279541015625,1442.9962158203125
1731694734710,-0.8730565309524536,-9.670360565185547,1.3035130500793457,-0.0002675867872312665,-0.0002070628252113238,0.0014437874779105186,-1089.0867919921875,633.3952026367188,1443.274169921875
1731694734710,-0.8741577863693237,-9.670555114746094,1.3049685955047607,-0.00029126188019290566,-0.00018351510516367853,0.0015193214640021324,-1090.347412109375,633.8446044921875,1444.0284423828125
1731694734710,-0.8745406866073608,-9.670697212219238,1.3066740036010742,-0.0002635980781633407,-0.00015738556976430118,0.0016509386477991939,-1089.999755859375,633.9168701171875,1444.752197265625
1731694734710,-0.8741015195846558,-9.67088794708252,1.307963490486145,-0.00021378110977821052,-0.000128190586110577,0.0017995759844779968,-1088.333251953125,633.2327880859375,1442.72119140625
1731694734710,-0.8729623556137085,-9.672163963317871,1.3079168796539307,-0.00012856799003202468,-0.00016441900515928864,0.0017996486276388168,-1089.018798828125,633.7245483398438,1442.1309814453125
1731694734710,-0.8719916939735413,-9.674107551574707,1.306817889213562,-7.670090417377651e-05,-0.0002721860946621746,0.001651809667237103,-1089.42333984375,634.208251953125,1442.3599853515625
1731694734710,-0.8716626763343811,-9.674986839294434,1.305628776550293,-0.000117577648779843,-0.00035430717980489135,0.0015524543123319745,-1087.566650390625,634.66015625,1440.5802001953125
1731694734710,-0.8719265460968018,-9.67393970489502,1.3047196865081787,-0.0002351825824007392,-0.0003509261005092412,0.0016243377467617393,-1088.99365234375,634.2803955078125,1443.14111328125
1731694734710,-0.8724440932273865,-9.671704292297363,1.3045380115509033,-0.00028982426738366485,-0.0003002853482030332,0.001761385821737349,-1088.5582275390625,633.7606201171875,1442.693603515625
1731694734710,-0.8731359839439392,-9.669794082641602,1.3050700426101685,-0.00020611041691154242,-0.00025565942632965744,0.0017375581664964557,-1090.496337890625,634.30224609375,1444.9385986328125
1731694734710,-0.873694896697998,-9.669361114501953,1.306084394454956,-4.535997868515551e-05,-0.0002553505473770201,0.0015841114800423384,-1089.9013671875,634.0855712890625,1443.9144287109375
1731694734710,-0.8738951086997986,-9.670645713806152,1.307537317276001,5.843831240781583e-05,-0.00026151101337745786,0.0014906178694218397,-1089.2972412109375,633.3870849609375,1443.7491455078125
1731694734710,-0.873943030834198,-9.672913551330566,1.3086094856262207,2.8327158361207694e-05,-0.00017852961900644004,0.00154517509508878,-1089.1793212890625,633.834716796875,1444.1038818359375
1731694734710,-0.8736283779144287,-9.674966812133789,1.3084416389465332,-0.00010129818110726774,-9.154729195870459e-05,0.0016942498041316867,-1088.5789794921875,633.56396484375,1442.7232666015625
1731694734710,-0.872918426990509,-9.67624568939209,1.3069114685058594,-0.0002199611917603761,-0.00012230974971316755,0.0018003931036219,-1089.763671875,633.9429931640625,1444.4151611328125
1731694734710,-0.8722666501998901,-9.67630672454834,1.3046748638153076,-0.00023158956901170313,-0.00022108759731054306,0.001766163157299161,-1089.486328125,634.0314331054688,1443.8447265625
1731694734710,-0.87226802110672,-9.674880027770996,1.3027920722961426,-0.00014672873658128083,-0.00026779394829645753,0.0016588413855060935,-1088.230712890625,633.429443359375,1442.7490234375
1731694734710,-0.872881293296814,-9.672722816467285,1.3022301197052002,-4.3650979932863265e-05,-0.000237217202084139,0.001604542718268931,-1089.3114013671875,634.58544921875,1443.594970703125
1731694734710,-0.8737196922302246,-9.670860290527344,1.3026944398880005,-1.9867988157784566e-05,-0.00016610334569122642,0.0016452225390821695,-1089.9522705078125,634.0494384765625,1443.6385498046875
1731694734710,-0.8741779923439026,-9.669753074645996,1.303317666053772,-0.00010577457578619942,-0.00010170211317017674,0.0017395305912941694,-1090.2962646484375,634.2119140625,1444.4783935546875
1731694734710,-0.8739258646965027,-9.669523239135742,1.3033431768417358,-0.00023570201301481575,-7.463069050572813e-05,0.0018321502720937133,-1088.9066162109375,633.56396484375,1442.493896484375
1731694734710,-0.8733962774276733,-9.669944763183594,1.3032807111740112,-0.0003277838695794344,-0.00011022150283679366,0.0018375386716797948,-1088.4091796875,633.3031005859375,1441.783447265625
1731694734710,-0.8735603094100952,-9.670538902282715,1.3041146993637085,-0.0003913305699825287,-0.00016590888844802976,0.0017854281468316913,-1087.6376953125,634.220703125,1439.6356201171875
1731694734710,-0.8737536668777466,-9.67074966430664,1.304851770401001,-0.0003826478496193886,-0.0002114203234668821,0.0017243654001504183,-1088.7119140625,633.52783203125,1442.39013671875
1731694736210,-0.8732283115386963,-9.670413970947266,1.304565668106079,-0.0002616179408505559,-0.00026044592959806323,0.0016679411055520177,-1090.1160888671875,634.380615234375,1443.697998046875
1731694736210,-0.8726515769958496,-9.669699668884277,1.3037577867507935,-8.201954187825322e-05,-0.0003151543205603957,0.0015780618414282799,-1088.6820068359375,633.5738525390625,1443.3935546875
1731694736210,-0.8725106120109558,-9.669853210449219,1.3034212589263916,2.9206665203673765e-05,-0.00032293034018948674,0.0015552118420600891,-1088.826171875,632.9837036132812,1443.4249267578125
1731694736210,-0.8720214366912842,-9.670838356018066,1.304338812828064,-1.3882057828595862e-05,-0.00031564652454108,0.0016171573661267757,-1088.6201171875,633.8328857421875,1443.130615234375
1731694736210,-0.8702022433280945,-9.672106742858887,1.3061200380325317,-0.00015978181909304112,-0.0002713878348004073,0.0017078238306567073,-1088.3590087890625,632.883544921875,1442.4090576171875
1731694736210,-0.8679706454277039,-9.673813819885254,1.3074008226394653,-0.0002675751456990838,-0.00021182827185839415,0.0017253339756280184,-1090.0712890625,634.0152587890625,1444.6800537109375
1731694736210,-0.8671342730522156,-9.675326347351074,1.3067069053649902,-0.0002730950072873384,-0.00014266444486565888,0.001705613569356501,-1088.564208984375,633.6903076171875,1443.573974609375
1731694736210,-0.8673431873321533,-9.675512313842773,1.3049185276031494,-0.0002247834054287523,-7.967260899022222e-05,0.0017328060930594802,-1089.0970458984375,633.6280517578125,1443.463134765625
1731694736210,-0.8676268458366394,-9.67442798614502,1.3040767908096313,-0.00018424967129249126,-7.353484397754073e-05,0.0017430969746783376,-1089.117919921875,633.10009765625,1443.3184814453125
1731694736210,-0.8679739832878113,-9.673114776611328,1.3050439357757568,-0.00021818438835907727,-0.00013953214511275291,0.0016485252417623997,-1089.0712890625,633.977294921875,1443.775146484375
1731694736210,-0.8682897686958313,-9.672874450683594,1.306462049484253,-0.00029586220625787973,-0.0002418310905341059,0.0015063919126987457,-1088.6099853515625,633.2688598632812,1442.767578125
1731694736210,-0.8686938881874084,-9.673277854919434,1.3068270683288574,-0.00032734626438468695,-0.00034959876211360097,0.0013744196621701121,-1090.8389892578125,634.7136840820312,1444.7305908203125
1731694736210,-0.8698814511299133,-9.672470092773438,1.3066662549972534,-0.0002646346401888877,-0.0004060993960592896,0.0013593508629128337,-1088.40380859375,633.2489013671875,1441.4271240234375
1731694736210,-0.8717739582061768,-9.670886993408203,1.3066359758377075,-0.00017278885934501886,-0.0003968744131270796,0.0015730306040495634,-1089.654296875,634.3345947265625,1443.0386962890625
1731694736210,-0.8737999200820923,-9.670021057128906,1.3066818714141846,-0.00011426061246311292,-0.00033671341952867806,0.0018780090613290668,-1089.1292724609375,635.127685546875,1441.2427978515625
1731694736210,-0.8750402927398682,-9.669865608215332,1.3070911169052124,-8.939531107898802e-05,-0.00023790946579538286,0.0020806859247386456,-1088.66015625,634.0195922851562,1442.316162109375
1731694736210,-0.8752850890159607,-9.669896125793457,1.3076552152633667,-5.450357639347203e-05,-0.0001359407906420529,0.0020489480812102556,-1088.0455322265625,633.7506713867188,1442.3101806640625
1731694736210,-0.8746684789657593,-9.670241355895996,1.3084640502929688,-1.4561432180926204e-05,-7.79222755227238e-05,0.0018887933110818267,-1088.8179931640625,634.958984375,1442.367431640625
1731694736210,-0.8736520409584045,-9.670632362365723,1.309179663658142,-1.07104133348912e-05,-4.361366154626012e-05,0.00178529170807451,-1088.2513427734375,633.2327880859375,1442.778564453125
1731694736210,-0.8727712631225586,-9.670604705810547,1.3090496063232422,-8.3038532466162e-05,-5.5110547691583633e-05,0.0017378167249262333,-1089.0704345703125,633.56396484375,1442.379150390625
1731694736210,-0.8726770877838135,-9.670525550842285,1.3075944185256958,-0.00022183440160006285,-8.288220851682127e-05,0.0017549481708556414,-1091.12109375,634.803955078125,1445.1334228515625
1731694736210,-0.8727505207061768,-9.67029857635498,1.3059091567993164,-0.00035824684891849756,-0.0001060045906342566,0.0017732469132170081,-1088.691162109375,633.7245483398438,1442.3604736328125
1731694736210,-0.872237503528595,-9.669843673706055,1.3045235872268677,-0.00044321370660327375,-7.480438216589391e-05,0.0017509333556517959,-1089.123046875,633.4854736328125,1443.84912109375
1731694736210,-0.8709895610809326,-9.66959285736084,1.3034560680389404,-0.000488877238240093,1.2177624739706516e-06,0.0017813012236729264,-1089.342529296875,634.2904052734375,1443.6392822265625
1731694736210,-0.8699788451194763,-9.669917106628418,1.3030041456222534,-0.00045496004167944193,5.6520511861890554e-06,0.0018117799190804362,-1089.870849609375,634.256103515625,1444.3939208984375
1731694736210,-0.8693640232086182,-9.670291900634766,1.3029382228851318,-0.00034587408299557865,-6.647335248999298e-05,0.001783053739927709,-1088.829345703125,634.07373046875,1442.557861328125
1731694736210,-0.8692002296447754,-9.670809745788574,1.3029826879501343,-0.00024124101037159562,-0.00011071312474086881,0.0017752147978171706,-1089.163330078125,633.341064453125,1442.8604736328125
1731694736210,-0.8698855638504028,-9.671866416931152,1.3037230968475342,-0.00015563516353722662,-9.86684171948582e-05,0.0017694111447781324,-1088.937255859375,634.2623901367188,1443.060546875
1731694736210,-0.8713264465332031,-9.673683166503906,1.3055319786071777,-4.586625436786562e-05,-8.313561556860805e-05,0.0018127845833078027,-1088.6712646484375,633.465576171875,1442.6806640625
1731694736210,-0.872683584690094,-9.675183296203613,1.307875633239746,8.54865211294964e-05,-0.0001265104510821402,0.0018821380799636245,-1090.4697265625,634.238037109375,1443.8544921875
1731694736210,-0.8733826279640198,-9.675267219543457,1.3092302083969116,0.00019361481827218086,-0.0002595052064862102,0.001855385140515864,-1088.2686767578125,634.3209228515625,1440.53662109375
1731694736210,-0.8734737634658813,-9.673781394958496,1.3088150024414062,0.00018308829749003053,-0.0003706103307195008,0.0017610716167837381,-1088.183349609375,633.5620727539062,1441.6353759765625
1731694736210,-0.8731058835983276,-9.671483993530273,1.307671070098877,2.5096644094446674e-05,-0.00033676737803034484,0.0016952583100646734,-1089.20458984375,633.27880859375,1443.09375
1731694736210,-0.8722372055053711,-9.669676780700684,1.3066179752349854,-0.0001613931090105325,-0.00020049171871505678,0.0016752040246501565,-1089.4757080078125,633.5919189453125,1442.9578857421875
1731694736210,-0.8714560270309448,-9.6696138381958,1.3060544729232788,-0.00025225686840713024,-9.09778755158186e-05,0.0016466930974274874,-1088.558837890625,633.6361083984375,1443.2176513671875
1731694736210,-0.8715112805366516,-9.670930862426758,1.306660771369934,-0.0002542745787650347,-7.404011557810009e-05,0.0016074040904641151,-1089.295166015625,634.4229736328125,1442.5257568359375
1731694736210,-0.8726949691772461,-9.672139167785645,1.308284044265747,-0.00023649580543860793,-0.0001250106142833829,0.0016437951708212495,-1088.5948486328125,633.5197143554688,1443.094482421875
1731694736210,-0.874224841594696,-9.672221183776855,1.309714913368225,-0.00022587928106077015,-0.0002001166285481304,0.0016314338427037,-1089.594482421875,633.5576782226562,1443.999267578125
1731694736210,-0.8756656646728516,-9.671307563781738,1.309474229812622,-0.00019276997772976756,-0.00025556422770023346,0.0015220536151900887,-1088.701904296875,634.1640014648438,1443.2474365234375
1731694737710,-0.8757966756820679,-9.670498847961426,1.3074884414672852,-0.00014896216453053057,-0.00027752277674153447,0.0014407257549464703,-1089.14306640625,633.7444458007812,1443.5289306640625
1731694737710,-0.8745813369750977,-9.670639038085938,1.3052339553833008,-0.0001415375736542046,-0.0003000600263476372,0.0014566293684765697,-1088.6519775390625,632.7509155273438,1443.3507080078125
1731694737710,-0.8722138404846191,-9.67176628112793,1.3042209148406982,-0.00013112604210618883,-0.0003548805834725499,0.001510730478912592,-1088.62060546875,632.8392944335938,1442.6082763671875
1731694737710,-0.8695478439331055,-9.673303604125977,1.304411768913269,-0.00016009947285056114,-0.0003814685333054513,0.001512967050075531,-1089.727294921875,633.852783203125,1443.84033203125
1731694737710,-0.8670849204063416,-9.6742525100708,1.3048593997955322,-0.00020933253108523786,-0.00034214722109027207,0.0014563625445589423,-1088.897216796875,632.8753662109375,1442.65478515625
1731694737710,-0.8653697967529297,-9.674591064453125,1.3055555820465088,-0.00023004307877272367,-0.000248120108153671,0.0014271315885707736,-1090.290771484375,634.1577758789062,1444.1219482421875
1731694737710,-0.8645864129066467,-9.674489974975586,1.3063958883285522,-0.00023725836945232004,-0.00014993974764365703,0.0014511037152260542,-1088.1783447265625,633.7145385742188,1441.976806640625
1731694737710,-0.8649899363517761,-9.673687934875488,1.3068629503250122,-0.00026059136143885553,-6.63057726342231e-05,0.0016000999603420496,-1088.193115234375,633.5881958007812,1441.1260986328125
1731694737710,-0.8656278252601624,-9.673200607299805,1.3065674304962158,-0.0003514742129482329,-7.576047210022807e-06,0.0017666529165580869,-1087.0665283203125,632.8536376953125,1441.0865478515625
1731694737710,-0.865946888923645,-9.674016952514648,1.3059219121932983,-0.0005110514466650784,-2.3269589291885495e-05,0.0018776996294036508,-1088.78271484375,633.7506713867188,1441.7939453125
1731694737710,-0.8660827279090881,-9.675228118896484,1.3056294918060303,-0.0006343241548165679,-9.340056567452848e-05,0.0019162403186783195,-1088.2562255859375,633.411376953125,1442.6109619140625
1731694737710,-0.8667804598808289,-9.675654411315918,1.305296540260315,-0.0006352561176754534,-0.00013570688315667212,0.001915211440064013,-1089.1990966796875,634.4248657226562,1443.957763671875
1731694737710,-0.8677017688751221,-9.675236701965332,1.3044896125793457,-0.0004869478871114552,-0.0001560458040330559,0.0018976670689880848,-1089.906982421875,633.8085327148438,1444.0968017578125
1731694737710,-0.8688133358955383,-9.674117088317871,1.303614616394043,-0.00028228614246472716,-0.00019236590014770627,0.0018382120179012418,-1089.0296630859375,633.8328857421875,1442.8438720703125
1731694737710,-0.8694866895675659,-9.672866821289062,1.3033742904663086,-8.206882193917409e-05,-0.0002461080439388752,0.0017225948395207524,-1089.669921875,634.62158203125,1443.5841064453125
1731694737710,-0.8698691129684448,-9.672171592712402,1.3039326667785645,7.490419375244528e-05,-0.0002915931981988251,0.0016105236718431115,-1088.9842529296875,633.5919189453125,1443.302001953125
1731694737710,-0.8703775405883789,-9.67212200164795,1.305356502532959,0.0001079154753824696,-0.0002666100626811385,0.0016082529909908772,-1089.3116455078125,633.923095703125,1443.2467041015625
1731694737710,-0.870518684387207,-9.672985076904297,1.3068089485168457,8.779632480582222e-06,-0.0001921712391776964,0.001664596376940608,-1090.13232421875,634.5430908203125,1444.7672119140625
1731694737710,-0.8698734045028687,-9.67415714263916,1.307459831237793,-7.983959221746773e-05,-0.00014762251521460712,0.0017373202135786414,-1089.3995361328125,634.1839599609375,1444.2437744140625
1731694737710,-0.8691820502281189,-9.67485237121582,1.3070484399795532,-7.985025877133012e-05,-0.00014701619511470199,0.0018679326167330146,-1089.5125732421875,633.5576782226562,1444.056640625
1731694737710,-0.8687025904655457,-9.674561500549316,1.3059090375900269,-2.3309745301958174e-05,-0.00017692975234240294,0.0019885608926415443,-1088.5789794921875,633.56396484375,1442.7232666015625
1731694737710,-0.8687019348144531,-9.673493385314941,1.3051949739456177,3.407617623452097e-05,-0.0002077341196127236,0.002026855945587158,-1089.963134765625,634.4889526367188,1444.5255126953125
1731694737710,-0.8687402606010437,-9.672042846679688,1.3052527904510498,8.527217869414017e-05,-0.0002499082766007632,0.0019904151558876038,-1088.2711181640625,633.8228759765625,1442.6324462890625
1731694737710,-0.8688281774520874,-9.670992851257324,1.305311918258667,0.00017547866445966065,-0.0003422890149522573,0.0018619936890900135,-1088.658203125,634.39306640625,1440.7442626953125
1731694737710,-0.8690844774246216,-9.67096996307373,1.3047583103179932,0.00020426700939424336,-0.0004204055294394493,0.0017225273186340928,-1087.870361328125,633.4356689453125,1441.013916015625
1731694737710,-0.8698825240135193,-9.671317100524902,1.3037925958633423,0.00012286078708712012,-0.0004112715250812471,0.0016952469013631344,-1089.4810791015625,633.6460571289062,1443.3143310546875
1731694737710,-0.8705497980117798,-9.671489715576172,1.3033300638198853,-2.3337015591096133e-05,-0.000336622993927449,0.0017081303521990776,-1088.7586669921875,633.5197143554688,1442.979736328125
1731694737710,-0.8709893226623535,-9.671238899230957,1.3043124675750732,-0.00015821198758203536,-0.0002696080773603171,0.0016863306518644094,-1089.122314453125,633.941162109375,1443.499267578125
1731694737710,-0.8710117340087891,-9.6708345413208,1.3064428567886353,-0.00024951313389465213,-0.00023621614673174918,0.0017028710572049022,-1089.224365234375,633.8689575195312,1442.9476318359375
1731694737710,-0.8708284497261047,-9.670854568481445,1.30823814868927,-0.0002752371074166149,-0.00022104737581685185,0.0017682729521766305,-1088.9732666015625,633.8148193359375,1442.7633056640625
1731694737710,-0.8702380657196045,-9.671234130859375,1.3091548681259155,-0.0002559553540777415,-0.00021477980772033334,0.0017985007725656033,-1089.2698974609375,634.10986328125,1442.489501953125
1731694737710,-0.8691610097885132,-9.671708106994629,1.3093526363372803,-0.00025034131249412894,-0.00016517407493665814,0.0018441393040120602,-1088.7735595703125,633.93115234375,1443.0010986328125
1731694737710,-0.8682335615158081,-9.672475814819336,1.3092021942138672,-0.0003008916974067688,-0.0001237478863913566,0.0019032304408028722,-1088.9896240234375,633.6460571289062,1443.658447265625
1731694737710,-0.8684108257293701,-9.673616409301758,1.309105634689331,-0.00035040563670918345,-0.00015161611372604966,0.001890470739454031,-1089.132080078125,633.96728515625,1442.990234375
1731694737710,-0.8692006468772888,-9.67487621307373,1.3093112707138062,-0.0003351290069986135,-0.00020051593310199678,0.0018621316412463784,-1089.4189453125,634.2362060546875,1443.2255859375
1731694737710,-0.8699877262115479,-9.675793647766113,1.3094747066497803,-0.0002494453510735184,-0.00023594818776473403,0.0018788399174809456,-1089.22998046875,633.5919189453125,1443.1300048828125
1731694737710,-0.8704200983047485,-9.675800323486328,1.3093851804733276,-0.00015278489445336163,-0.0002455060894135386,0.0018938255961984396,-1089.0447998046875,633.9131469726562,1442.691162109375
1731694737710,-0.8704399466514587,-9.675169944763184,1.3092896938323975,-8.005947165656835e-05,-0.0002695616858545691,0.0018713354365900159,-1088.9422607421875,634.10986328125,1442.718994140625
1731694737710,-0.8698627948760986,-9.674105644226074,1.3088124990463257,-5.709961260436103e-05,-0.00032704067416489124,0.0018669646233320236,-1089.32666015625,634.3345947265625,1443.2681884765625
1731694739210,-0.8687648177146912,-9.67293930053711,1.307530164718628,-8.797604823485017e-05,-0.0003742678964044899,0.0019118143245577812,-1088.3458251953125,634.1422119140625,1440.6468505859375
1731694739210,-0.8669220805168152,-9.672186851501465,1.3057366609573364,-0.00015504671318922192,-0.00035551731707528234,0.0018756277859210968,-1087.6544189453125,633.3896484375,1440.1824951171875
1731694739210,-0.8656357526779175,-9.671838760375977,1.3040982484817505,-0.00023623378365300596,-0.00025256481603719294,0.0016969579737633467,-1088.67236328125,632.3475341796875,1442.68212890625
1731694739210,-0.8657074570655823,-9.671499252319336,1.3033546209335327,-0.0002841268724296242,-0.0001518598583061248,0.0014691760297864676,-1088.0565185546875,633.52783203125,1442.848876953125
1731694739210,-0.8663875460624695,-9.671010971069336,1.303560495376587,-0.00027608530945144594,-0.00013047449465375394,0.0013636091025546193,-1088.5736083984375,633.1785888671875,1442.1927490234375
1731694739210,-0.8666651248931885,-9.671480178833008,1.3039106130599976,-0.0002636122517287731,-0.00018269100110046566,0.0014244196936488152,-1088.6864013671875,633.2147216796875,1442.3536376953125
1731694739210,-0.866779088973999,-9.673160552978516,1.30446457862854,-0.00027489475905895233,-0.00024412698985543102,0.0015273469034582376,-1088.82470703125,633.56396484375,1442.55126953125
1731694739210,-0.8668992519378662,-9.675130844116211,1.3054876327514648,-0.0002684732899069786,-0.0002679010503925383,0.001586135127581656,-1088.620361328125,633.1705322265625,1442.7823486328125
1731694739210,-0.8672212362289429,-9.676190376281738,1.3066394329071045,-0.0002544074959587306,-0.00026468734722584486,0.001604562858119607,-1088.4097900390625,633.1785888671875,1442.307373046875
1731694739210,-0.8671582937240601,-9.675385475158691,1.307180404663086,-0.0002499630209058523,-0.0002762726799119264,0.0015932854730635881,-1088.8865966796875,633.6361083984375,1442.9881591796875
1731694739210,-0.8666267991065979,-9.67342472076416,1.306565284729004,-0.0002673584676813334,-0.0002953095827251673,0.0016470213886350393,-1088.7275390625,633.8148193359375,1442.935302734375
1731694739210,-0.8660749793052673,-9.672327995300293,1.3052935600280762,-0.0002643800398800522,-0.0003220824000891298,0.0017698649317026138,-1089.3572998046875,633.8328857421875,1442.6143798828125
1731694739210,-0.8665472269058228,-9.672478675842285,1.304213285446167,-0.000233410406508483,-0.0003098563465755433,0.0018926155753433704,-1089.5107421875,633.93115234375,1442.48486328125
1731694739210,-0.8681269288063049,-9.673064231872559,1.30372953414917,-0.00020316994050517678,-0.00022824257030151784,0.0019799554720520973,-1088.58447265625,633.6181030273438,1443.0797119140625
1731694739210,-0.8706007599830627,-9.6730318069458,1.3044131994247437,-0.0001676325628068298,-0.00013502020738087595,0.0019549066200852394,-1088.7425537109375,634.226318359375,1442.956787109375
1731694739210,-0.8724178075790405,-9.672802925109863,1.3058679103851318,-0.0001537161588203162,-6.705563282594085e-05,0.0018618544563651085,-1088.9774169921875,634.1179809570312,1442.0718994140625
1731694739210,-0.8726295232772827,-9.672779083251953,1.3070697784423828,-0.00016602867981418967,-4.654104122892022e-05,0.0018131389515474439,-1088.4434814453125,634.0980224609375,1440.960693359375
1731694739210,-0.8715635538101196,-9.672443389892578,1.3075759410858154,-0.00020155795209575444,-0.00010372651740908623,0.0018487288616597652,-1089.5052490234375,634.208251953125,1442.3026123046875
1731694739210,-0.8702954053878784,-9.672435760498047,1.307393193244934,-0.00022650114260613918,-0.00020430702716112137,0.0019397932337597013,-1088.8658447265625,633.8328857421875,1442.95849609375
1731694739210,-0.8688167929649353,-9.673195838928223,1.3069000244140625,-0.0002266125229652971,-0.00026161319692619145,0.0020073202904313803,-1088.6663818359375,633.286865234375,1442.84814453125
1731694739210,-0.8676942586898804,-9.674386024475098,1.3061538934707642,-0.00023672978568356484,-0.00026722706388682127,0.0019349543144926429,-1089.385009765625,633.64794921875,1444.7462158203125
1731694739210,-0.8674945831298828,-9.675257682800293,1.3049983978271484,-0.00019222938863094896,-0.00024108769139274955,0.0017539095133543015,-1088.7171630859375,633.9131469726562,1442.9205322265625
1731694739210,-0.8679124116897583,-9.67534351348877,1.3036574125289917,-0.00015831134805921465,-0.00019634273485280573,0.0016179773956537247,-1089.1168212890625,634.2181396484375,1443.3170166015625
1731694739210,-0.8681117296218872,-9.674928665161133,1.3029792308807373,-0.00020136864623054862,-0.00014066413859836757,0.001612904598005116,-1088.764404296875,632.580322265625,1442.813720703125
1731694739210,-0.8680902719497681,-9.674339294433594,1.3033069372177124,-0.00029322667978703976,-6.784542347304523e-05,0.0016900136834010482,-1089.46533203125,633.6903076171875,1442.943115234375
1731694739210,-0.8675330877304077,-9.674323081970215,1.3046005964279175,-0.00035466175177134573,3.161345375701785e-06,0.001810432062484324,-1089.41943359375,633.24267578125,1442.703125
1731694739210,-0.86671382188797,-9.674657821655273,1.3063106536865234,-0.0003141924971714616,2.8587470296770334e-05,0.0019048145040869713,-1090.618408203125,634.4889526367188,1444.066650390625
1731694739210,-0.8660886883735657,-9.674537658691406,1.3067407608032227,-0.00015955610433593392,-1.9495171727612615e-05,0.001976441591978073,-1088.845458984375,634.2362060546875,1443.6270751953125
1731694739210,-0.8660591840744019,-9.674328804016113,1.3052639961242676,4.875551167060621e-05,-9.891681838780642e-05,0.0020448630675673485,-1089.3680419921875,633.941162109375,1443.3272705078125
1731694739210,-0.866912841796875,-9.674433708190918,1.3029347658157349,0.00020042200048919767,-0.00018770445603877306,0.0020177478436380625,-1089.2662353515625,633.68212890625,1443.704833984375
1731694739210,-0.8689156174659729,-9.674341201782227,1.3013267517089844,0.00023355090525001287,-0.0002598815772216767,0.00189339614007622,-1089.28076171875,633.886962890625,1443.0281982421875
1731694739210,-0.8702259063720703,-9.673754692077637,1.301487922668457,0.00018652672588359565,-0.00030259130289778113,0.0017155398381873965,-1089.18798828125,633.7786865234375,1442.3726806640625
1731694739210,-0.8701143860816956,-9.6737699508667,1.3033320903778076,8.527134195901453e-05,-0.00030653399880975485,0.001602365169674158,-1088.0650634765625,633.802978515625,1441.2918701171875
1731694739210,-0.8691622018814087,-9.674436569213867,1.3049808740615845,-5.404298644862138e-05,-0.00023263739421963692,0.001618430484086275,-1088.458251953125,633.6405029296875,1439.935791015625
1731694739210,-0.8680312037467957,-9.6749267578125,1.305755853652954,-0.00016630589379929006,-0.00015213023289106786,0.001682067522779107,-1089.178955078125,633.6280517578125,1443.40576171875
1731694739210,-0.8669518232345581,-9.674809455871582,1.30579674243927,-0.00022946337412577122,-0.00010808827937580645,0.00171611865516752,-1089.14306640625,633.7444458007812,1443.5289306640625
1731694739210,-0.8665728569030762,-9.67453384399414,1.3054325580596924,-0.0002665218780748546,-0.00012624100781977177,0.001678326167166233,-1089.0457763671875,633.995361328125,1443.9130859375
1731694739210,-0.8667965531349182,-9.673763275146484,1.3058769702911377,-0.0002700911136344075,-0.00014310283586382866,0.0016546777915209532,-1089.5015869140625,633.780517578125,1443.51806640625
1731694739210,-0.8670143485069275,-9.672706604003906,1.307247519493103,-0.0001860122283687815,-9.724032133817673e-05,0.001676947227679193,-1088.89697265625,633.5377197265625,1443.0029296875
1731694740710,-0.8672114610671997,-9.672204971313477,1.3087464570999146,-5.1656759751494974e-05,-5.6474615121260285e-05,0.0017503576818853617,-1089.14306640625,633.7444458007812,1443.5289306640625
1731694740710,-0.8674848675727844,-9.672489166259766,1.3094265460968018,5.214596967562102e-05,-0.00012316819629631937,0.0017455918714404106,-1088.0877685546875,632.5704345703125,1442.5450439453125
1731694740710,-0.8675280809402466,-9.673421859741211,1.3085236549377441,6.979747558943927e-05,-0.00020797463366761804,0.0017550679622218013,-1088.005615234375,633.2327880859375,1442.9505615234375
1731694740710,-0.8665157556533813,-9.673792839050293,1.306899905204773,-7.692404324188828e-06,-0.00021144541096873581,0.0019121140940114856,-1088.38916015625,633.375244140625,1442.27783203125
1731694740710,-0.8643566966056824,-9.673280715942383,1.3052972555160522,-0.00016064729425124824,-0.00011414935579523444,0.0021567619405686855,-1088.7950439453125,633.27880859375,1443.3804931640625
1731694740710,-0.8626021146774292,-9.672636985778809,1.3041083812713623,-0.0002807104028761387,-2.63767724391073e-05,0.00232520280405879,-1089.225341796875,633.0820922851562,1443.123291015625
1731694740710,-0.8622751235961914,-9.672466278076172,1.3041695356369019,-0.00031370436772704124,-3.0956813134253025e-05,0.0023602242581546307,-1089.2916259765625,633.995361328125,1443.740966796875
1731694740710,-0.8626878261566162,-9.673043251037598,1.3047558069229126,-0.00030683426302857697,-0.00011907116277143359,0.002264884766191244,-1088.7935791015625,633.8590087890625,1442.5068359375
1731694740710,-0.8634797930717468,-9.673807144165039,1.305006742477417,-0.00031894686981104314,-0.00023926905123516917,0.0020546158775687218,-1088.373291015625,633.4194946289062,1441.906494140625
1731694740710,-0.8642112016677856,-9.674164772033691,1.3051661252975464,-0.0003476831770967692,-0.00031583226518705487,0.0018253091257065535,-1088.2598876953125,633.5079345703125,1441.221435546875
1731694740710,-0.8647292852401733,-9.674376487731934,1.3048720359802246,-0.000368563603842631,-0.0002846041461452842,0.0017601795261725783,-1087.2730712890625,634.2548828125,1438.766357421875
1731694740710,-0.8660004138946533,-9.67428970336914,1.3046164512634277,-0.00036530985380522907,-0.00021150772226974368,0.0018388164462521672,-1088.8511962890625,633.6280517578125,1443.63525390625
1731694740710,-0.8676892518997192,-9.674081802368164,1.304741621017456,-0.00035402632784098387,-0.00015411476488225162,0.0018292261520400643,-1089.024658203125,633.9853515625,1443.1854248046875
1731694740710,-0.8681824207305908,-9.67408561706543,1.3052806854248047,-0.0003117755404673517,-0.0001824373030103743,0.0016787886852398515,-1089.5120849609375,633.3510131835938,1443.358642578125
1731694740710,-0.8669679164886475,-9.674681663513184,1.306355595588684,-0.00023638152924831957,-0.0002660356694832444,0.001577350776642561,-1089.0712890625,633.977294921875,1443.775146484375
1731694740710,-0.8656383752822876,-9.67567253112793,1.3073316812515259,-0.00015206208627205342,-0.0003191557480022311,0.0016480333870276809,-1089.1844482421875,633.3510131835938,1443.5880126953125
1731694740710,-0.8653855323791504,-9.675701141357422,1.3074212074279785,-0.00011401752999518067,-0.0002882748085539788,0.001859791111201048,-1089.86669921875,633.9529418945312,1445.08544921875
1731694740710,-0.8662005066871643,-9.674628257751465,1.3071115016937256,-0.00016076199244707823,-0.00018540606833994389,0.0020663717295974493,-1088.783935546875,633.8328857421875,1443.015869140625
1731694740710,-0.8671262264251709,-9.67383861541748,1.306677222251892,-0.00020725332433357835,-7.553058094345033e-05,0.002204850083217025,-1089.5885009765625,633.6280517578125,1443.1190185546875
1731694740710,-0.8675599694252014,-9.67395305633545,1.3063043355941772,-0.00025530109996907413,-4.9340014811605215e-06,0.002325955778360367,-1089.3170166015625,633.977294921875,1443.60302734375
1731694740710,-0.8671279549598694,-9.674717903137207,1.30556321144104,-0.0003148140967823565,3.153365105390549e-05,0.002439267700538039,-1089.435546875,633.736328125,1443.946533203125
1731694740710,-0.8663222789764404,-9.675182342529297,1.3047171831130981,-0.0003473630640655756,2.8852897230535746e-05,0.0023972499184310436,-1088.95849609375,633.941162109375,1443.614013671875
1731694740710,-0.8654221296310425,-9.674818992614746,1.3049039840698242,-0.00027261863579042256,-1.4971417840570211e-05,0.0021305831614881754,-1089.5125732421875,633.5576782226562,1444.056640625
1731694740710,-0.8644621968269348,-9.674105644226074,1.305795669555664,-0.00014693269622512162,-6.018858402967453e-05,0.0018567790975794196,-1089.537353515625,633.995361328125,1443.5689697265625
1731694740710,-0.8643076419830322,-9.67365837097168,1.3069478273391724,-6.78513606544584e-05,-0.00011154342791996896,0.0017501324182376266,-1089.193359375,634.1640014648438,1442.9033203125
1731694740710,-0.8652125000953674,-9.673827171325684,1.308179497718811,-2.9279752197908238e-05,-0.00016566127305850387,0.0018220358761027455,-1088.7567138671875,633.5620727539062,1441.2337646484375
1731694740710,-0.8664602637290955,-9.674060821533203,1.3086363077163696,-5.1124461606377736e-05,-0.00021249917335808277,0.0020350883714854717,-1087.8626708984375,634.4173583984375,1439.43408203125
1731694740710,-0.867163360118866,-9.673789024353027,1.3085533380508423,-7.348433427978307e-05,-0.00024674489395692945,0.0021850457414984703,-1089.3634033203125,633.4313354492188,1443.3206787109375
1731694740710,-0.8668590784072876,-9.67389965057373,1.3077566623687744,-9.981569019146264e-05,-0.00022919554612599313,0.002100676530972123,-1088.8863525390625,633.96728515625,1443.1622314453125
1731694740710,-0.8663309812545776,-9.674577713012695,1.3067771196365356,-0.0001575449132360518,-0.00019055450684390962,0.0018913699313998222,-1090.2916259765625,633.7021484375,1444.4718017578125
1731694740710,-0.8663277626037598,-9.67524528503418,1.306018590927124,-0.00023532543855253607,-0.0001589517924003303,0.001762222032994032,-1088.912109375,633.286865234375,1442.6761474609375
1731694740710,-0.8666223287582397,-9.675193786621094,1.305440068244934,-0.0002862687688320875,-9.507554932497442e-05,0.0018129998352378607,-1089.450927734375,633.154296875,1443.445556640625
1731694740710,-0.867102861404419,-9.67456340789795,1.3058204650878906,-0.000286188063910231,1.0871968697756529e-05,0.001975931925699115,-1089.1685791015625,633.7264404296875,1443.3909912109375
1731694740710,-0.8676185607910156,-9.674018859863281,1.3068885803222656,-0.0002237092558061704,9.646695980336517e-05,0.002158709103241563,-1089.1942138671875,633.377197265625,1443.0789794921875
1731694740710,-0.8677281737327576,-9.673958778381348,1.3073188066482544,-0.00011530683696037158,7.782017928548157e-05,0.0022865356877446175,-1088.8150634765625,633.5377197265625,1443.060302734375
1731694740710,-0.8677907586097717,-9.674005508422852,1.307074785232544,-5.6909255363279954e-05,-2.1478539565578103e-05,0.002339636906981468,-1089.260986328125,633.296875,1443.17431640625
1731694740710,-0.8682821393013,-9.673748970031738,1.306328296661377,-3.183927037753165e-05,-0.00012551216059364378,0.0022734368685632944,-1089.086669921875,633.7264404296875,1443.4483642578125
1731694740710,-0.8680995106697083,-9.673440933227539,1.305113434791565,-1.551276000100188e-05,-0.0001799159508664161,0.002094428287819028,-1089.2099609375,633.3330078125,1443.4500732421875
1731694740710,-0.8671652674674988,-9.673039436340332,1.3042892217636108,9.629875421524048e-07,-0.0002046378212980926,0.0018325257115066051,-1088.8658447265625,633.8328857421875,1442.95849609375
1731694742210,-0.8663841485977173,-9.67258071899414,1.304581880569458,1.6445599612779915e-05,-0.0002383184473728761,0.0016149507137015462,-1089.1988525390625,633.886962890625,1443.0855712890625
1731694742210,-0.8658532500267029,-9.672525405883789,1.3057677745819092,-3.0693812732351944e-05,-0.00021128836669959128,0.0015771997859701514,-1089.2662353515625,633.68212890625,1443.704833984375
1731694742210,-0.8649663329124451,-9.673408508300781,1.306647539138794,-0.00010335114347981289,-0.00010916788596659899,0.0016757117118686438,-1088.57275390625,633.9654541015625,1442.01708984375
1731694742210,-0.8637271523475647,-9.674314498901367,1.3060686588287354,-0.0001139276719186455,-3.839487908408046e-05,0.001755937933921814,-1088.032958984375,633.6846923828125,1439.8514404296875
1731694742210,-0.8629920482635498,-9.673988342285156,1.3053396940231323,-0.00010823713819263503,5.606445483863354e-06,0.0018084906041622162,-1089.066162109375,633.5919189453125,1443.24462890625
1731694742210,-0.8630649447441101,-9.673162460327148,1.3056309223175049,-0.0001581344404257834,6.693346949759871e-05,0.001915991073474288,-1089.2410888671875,633.037841796875,1443.4945068359375
1731694742210,-0.8637866377830505,-9.673471450805664,1.3072456121444702,-0.00016885739751160145,0.00011755531886592507,0.0019845175556838512,-1088.841064453125,633.3952026367188,1443.4462890625
1731694742210,-0.8646456599235535,-9.674407005310059,1.3091529607772827,-0.00011587202607188374,0.00014472725160885602,0.0020133149810135365,-1088.9385986328125,633.3510131835938,1443.7601318359375
1731694742210,-0.8651281595230103,-9.674539566040039,1.3103018999099731,-9.42866608966142e-05,0.00011050987814087421,0.0020106832962483168,-1089.394287109375,633.798583984375,1443.7132568359375
1731694742210,-0.8650897741317749,-9.674027442932129,1.3099209070205688,-8.045102003961802e-05,-4.935078322887421e-06,0.001932182116433978,-1089.2451171875,633.6722412109375,1442.977294921875
1731694742210,-0.8643747568130493,-9.673237800598145,1.3083828687667847,-4.605569483828731e-05,-0.00014785118401050568,0.0019024534849449992,-1089.1024169921875,633.68212890625,1443.819580078125
1731694742210,-0.8641685247421265,-9.672470092773438,1.3064380884170532,-7.477392500732094e-06,-0.0002698922762647271,0.0019388367654755712,-1089.4251708984375,633.834716796875,1443.9317626953125
1731694742210,-0.864837110042572,-9.672362327575684,1.3056875467300415,4.9526148359291255e-05,-0.0003655791515484452,0.0018467385089024901,-1089.3680419921875,633.941162109375,1443.3272705078125
1731694742210,-0.8658657073974609,-9.673460960388184,1.3061447143554688,0.00015672549488954246,-0.0004143521946389228,0.0016917007742449641,-1089.8602294921875,633.4854736328125,1443.3328857421875
1731694742210,-0.8665599822998047,-9.67490291595459,1.30631685256958,0.00027110494556836784,-0.0004315717378631234,0.0015837609535083175,-1089.8758544921875,634.1036376953125,1444.0523681640625
1731694742210,-0.8678497672080994,-9.675861358642578,1.3060251474380493,0.00027144167688675225,-0.0003954003332182765,0.0015645016683265567,-1089.6812744140625,633.736328125,1443.7745361328125
1731694742210,-0.8697852492332458,-9.675521850585938,1.3064184188842773,0.00015351454203482717,-0.00032748724333941936,0.0015748880105093122,-1089.650146484375,634.0314331054688,1443.7301025390625
1731694742210,-0.8710724115371704,-9.67387580871582,1.3075780868530273,-1.4049273886485025e-05,-0.00023138576943892986,0.001652396284043789,-1091.320556640625,635.0186767578125,1445.0697021484375
1731694742210,-0.871004581451416,-9.671805381774902,1.3083202838897705,-0.00020019410294480622,-0.0001318979193456471,0.0018594234716147184,-1090.0382080078125,634.683837890625,1443.0638427734375
1731694742210,-0.8698440194129944,-9.67069149017334,1.3082009553909302,-0.0003347019664943218,-3.99955315515399e-05,0.0021263244561851025,-1088.2529296875,634.033935546875,1439.9913330078125
1731694742210,-0.8681988716125488,-9.670894622802734,1.3077852725982666,-0.0003415450919419527,6.288688746280968e-05,0.002358346479013562,-1089.4410400390625,633.79052734375,1444.302978515625
1731694742210,-0.8671269416809082,-9.671451568603516,1.307839035987854,-0.00024811591720208526,0.00015729367441963404,0.002514550229534507,-1088.789306640625,633.886962890625,1443.372314453125
1731694742210,-0.8668924570083618,-9.671503067016602,1.308254361152649,-0.00016427453374490142,0.00022698160319123417,0.002528674900531769,-1090.126953125,634.1577758789062,1444.2366943359375
1731694742210,-0.8674774169921875,-9.671016693115234,1.3081905841827393,-0.00014574216038454324,0.00021549550001509488,0.0022780410945415497,-1088.9940185546875,633.6181030273438,1442.79296875
1731694742210,-0.8680514693260193,-9.6703462600708,1.3080731630325317,-0.00016633386258035898,0.00011241082393098623,0.0019058067118749022,-1089.507080078125,633.834716796875,1443.8743896484375
1731694742210,-0.8686705827713013,-9.670366287231445,1.308014988899231,-0.00015310468734242022,-4.209444159641862e-05,0.001665946445427835,-1089.0712890625,633.977294921875,1443.775146484375
1731694742210,-0.869570255279541,-9.671269416809082,1.3073967695236206,-0.00014355461462400854,-0.00020887699793092906,0.0015742562245577574,-1089.2916259765625,633.995361328125,1443.740966796875
1731694742210,-0.8706790804862976,-9.672649383544922,1.3063758611679077,-0.00017775958986021578,-0.00034772977232933044,0.0014818947529420257,-1089.7177734375,633.4954833984375,1444.1751708984375
1731694742210,-0.8713563680648804,-9.674107551574707,1.3057061433792114,-0.00019283336587250233,-0.0004190392210148275,0.0014427952701225877,-1089.1484375,633.798583984375,1443.8853759765625
1731694742210,-0.8711810111999512,-9.675050735473633,1.3056378364562988,-0.00013169070007279515,-0.0004243079456500709,0.0015423173317685723,-1090.1787109375,633.666015625,1444.3106689453125
1731694742210,-0.8707691431045532,-9.675198554992676,1.3059157133102417,-1.705842441879213e-05,-0.0003754595818463713,0.0017772765131667256,-1090.4090576171875,634.248046875,1444.6395263671875
1731694742210,-0.870263934135437,-9.674798011779785,1.306334376335144,0.00012172156129963696,-0.0002740338968578726,0.002051740884780884,-1089.7216796875,634.1297607421875,1443.657958984375
1731694742210,-0.8692081570625305,-9.673696517944336,1.3059495687484741,0.00018065719632431865,-0.00020829631830565631,0.0022303941659629345,-1090.21435546875,634.2119140625,1444.5357666015625
1731694742210,-0.8682542443275452,-9.672675132751465,1.306336522102356,8.87117930687964e-05,-0.00025429128436371684,0.0021592830307781696,-1089.55810546875,633.798583984375,1443.5986328125
1731694742210,-0.8706448078155518,-9.67260456085205,1.303168773651123,-0.00029158886172808707,-0.002949315821751952,0.0020910759922116995,-1089.9013671875,634.0855712890625,1443.9144287109375
1731694742210,-0.8679044842720032,-9.67293930053711,1.3037692308425903,-0.0010497024049982429,-0.011992034502327442,0.0018974586855620146,-1088.9915771484375,633.784912109375,1440.52294921875
1731694742210,-0.8580488562583923,-9.673401832580566,1.3132498264312744,-0.0006534635322168469,-0.011260850355029106,-0.0009624625090509653,-1090.556640625,634.0855712890625,1443.45556640625
1731694742210,-0.8529428839683533,-9.674437522888184,1.3165733814239502,0.001157622435130179,0.0037075444124639034,-0.00601999694481492,-1090.393798828125,633.2987060546875,1443.745849609375
1731694742210,-0.8547435402870178,-9.67617416381836,1.3110533952713013,0.0027857176028192043,0.018934670835733414,-0.00925229862332344,-1089.9635009765625,633.4954833984375,1444.003173828125
1731694743710,-0.8591845631599426,-9.677628517150879,1.304701805114746,0.0030147014185786247,0.0237286239862442,-0.00682622566819191,-1089.594482421875,633.5576782226562,1443.999267578125
1731694743710,-0.862754225730896,-9.676217079162598,1.3028935194015503,0.0018009995110332966,0.018454119563102722,-0.0003058349248021841,-1090.9425048828125,634.061279296875,1445.052734375
1731694743710,-0.8721979856491089,-9.668237686157227,1.315770149230957,-0.0008682910120114684,0.007040731143206358,0.0018402154091745615,-1090.9739990234375,632.772705078125,1444.574462890625
1731694743710,-0.8911076188087463,-9.655135154724121,1.3839267492294312,-0.005257370416074991,-0.0006255331682041287,-0.008062624372541904,-1091.22607421875,634.4403076171875,1447.3756103515625
1731694743710,-0.9067307114601135,-9.654897689819336,1.4394285678863525,-0.008394729346036911,0.02243504486978054,-0.01670939102768898,-1091.947998046875,635.8914184570312,1448.4066162109375
1731694743710,-0.9145598411560059,-9.672478675842285,1.4182400703430176,-0.018484655767679214,0.09683174639940262,0.003326485864818096,-1091.2564697265625,637.0013427734375,1449.510986328125
1731694743710,-0.9153605699539185,-9.692059516906738,1.302427053451538,-0.039858005940914154,0.19573356211185455,0.04866732656955719,-1091.75244140625,637.8424072265625,1449.3477783203125
1731694743710,-0.9219167828559875,-9.716408729553223,1.1389336585998535,-0.046438321471214294,0.23698300123214722,0.07770518958568573,-1090.809814453125,637.3668212890625,1448.873046875
1731694743710,-0.9249289035797119,-9.73177719116211,1.0391358137130737,-0.03369780629873276,0.18844400346279144,0.08351283520460129,-1091.4197998046875,637.994873046875,1449.918701171875
1731694743710,-0.9194934964179993,-9.710864067077637,1.0661115646362305,-0.0144495889544487,0.10560370981693268,0.0696626827120781,-1091.5218505859375,637.9226684570312,1449.3670654296875
1731694743710,-0.9178183674812317,-9.668949127197266,1.1684116125106812,0.0020934785716235638,0.05441410094499588,0.037842702120542526,-1091.5928955078125,637.8143310546875,1448.5968017578125
1731694743710,-0.9265142679214478,-9.63524055480957,1.2588666677474976,0.010060634464025497,0.049098849296569824,0.0010938332416117191,-1090.7520751953125,637.5977172851562,1447.7447509765625
1731694743710,-0.941252589225769,-9.628488540649414,1.2899771928787231,0.010112046264111996,0.06477190554141998,-0.02297031506896019,-1090.9259033203125,638.492919921875,1448.1671142578125
1731694743710,-0.95771324634552,-9.64389419555664,1.2689099311828613,0.004856396466493607,0.07473104447126389,-0.02977871336042881,-1091.71630859375,638.62109375,1449.819091796875
1731694743710,-0.9721659421920776,-9.666430473327637,1.2229958772659302,0.0006003580056130886,0.06906189024448395,-0.03047345206141472,-1091.9931640625,638.3260498046875,1449.69140625
1731694743710,-0.9809931516647339,-9.687187194824219,1.1781940460205078,-0.0020666844211518764,0.04673328623175621,-0.028870780020952225,-1090.8138427734375,638.0010986328125,1448.355712890625
1731694743710,-0.9806884527206421,-9.703991889953613,1.1551592350006104,-0.01670193485915661,0.008499391376972198,-0.03092171438038349,-1091.6142578125,637.4931640625,1449.1502685546875
1731694743710,-0.958068311214447,-9.788198471069336,1.1516668796539307,-0.06784551590681076,-0.0382203571498394,-0.051761310547590256,-1093.3433837890625,639.50634765625,1448.4814453125
1731694743710,-0.8905216455459595,-10.415645599365234,1.2057775259017944,-0.13422644138336182,-0.09279974550008774,-0.11219813674688339,-1096.2764892578125,640.750732421875,1447.265869140625
1731694743710,-0.8139974474906921,-11.804217338562012,1.3970481157302856,-0.038630738854408264,-0.16998906433582306,-0.19604848325252533,-1099.2318115234375,638.4866943359375,1444.33837890625
1731694743710,-0.7406656742095947,-13.259018898010254,1.657409906387329,0.361897736787796,-0.2817469537258148,-0.29068922996520996,-1099.366943359375,635.0142822265625,1442.7877197265625
1731694743710,-0.5866813659667969,-13.964757919311523,1.8365347385406494,0.9629966020584106,-0.4113653302192688,-0.4127514362335205,-1099.3753662109375,635.2894287109375,1441.2308349609375
1731694743710,-0.19066739082336426,-13.44904899597168,1.871581792831421,1.5418516397476196,-0.4925600588321686,-0.53541499376297,-1101.0506591796875,635.2552490234375,1441.1824951171875
1731694743710,0.29587066173553467,-11.640607833862305,1.9135313034057617,1.886671543121338,-0.4268626570701599,-0.6072607636451721,-1099.295654296875,635.09716796875,1437.978515625
1731694743710,0.508492648601532,-9.299257278442383,2.2306199073791504,1.8728749752044678,-0.22138962149620056,-0.5906891226768494,-1099.9854736328125,635.229736328125,1436.3487548828125
1731694743710,0.3447175621986389,-7.423567771911621,2.88594388961792,1.5732592344284058,0.0025916993618011475,-0.5052464008331299,-1100.91259765625,634.2181396484375,1435.0574951171875
1731694743710,0.08450299501419067,-6.312079429626465,3.6224138736724854,1.1576049327850342,0.1264559030532837,-0.40796661376953125,-1101.920654296875,634.8624267578125,1434.5794677734375
1731694743710,0.00955122709274292,-5.9122395515441895,4.184435844421387,0.7401654124259949,0.13464900851249695,-0.3487080931663513,-1101.291259765625,634.1820068359375,1434.55224609375
1731694743710,0.148490309715271,-6.104380130767822,4.491363525390625,0.400537371635437,0.09134742617607117,-0.3287026286125183,-1102.842041015625,634.4591064453125,1433.2801513671875
1731694743710,0.3859076499938965,-6.6546125411987305,4.593000411987305,0.18855567276477814,0.06443432718515396,-0.30746328830718994,-1102.969970703125,634.575439453125,1433.2884521484375
1731694743710,0.5755224823951721,-7.297619819641113,4.616344451904297,0.09937301278114319,0.07266318798065186,-0.2603655159473419,-1102.91357421875,634.5574340820312,1433.2078857421875
1731694743710,0.690096914768219,-7.7857890129089355,4.632271766662598,0.09556528925895691,0.0948043167591095,-0.197997584939003,-1102.3961181640625,634.3687744140625,1432.9920654296875
1731694743710,0.7559879422187805,-7.992348670959473,4.658084869384766,0.12723590433597565,0.1236981749534607,-0.12851372361183167,-1102.30322265625,634.5916748046875,1432.510498046875
1731694743710,0.7123541831970215,-8.010513305664062,4.737636566162109,0.15742693841457367,0.15158720314502716,-0.05097246170043945,-1102.139404296875,634.5916748046875,1432.625244140625
1731694743710,0.6216611862182617,-7.939348220825195,4.842935562133789,0.16335776448249817,0.15076011419296265,0.015124855563044548,-1102.70361328125,634.772216796875,1433.4310302734375
1731694743710,0.5666956901550293,-7.865443229675293,4.938069820404053,0.12374242395162582,0.11055128276348114,0.04219626635313034,-1102.4986572265625,634.5032958984375,1433.1383056640625
1731694743710,0.5694007277488708,-7.858473777770996,5.006390571594238,0.05276869609951973,0.04492046684026718,0.03620769828557968,-1102.278564453125,634.154052734375,1432.9984130859375
1731694743710,0.6325584053993225,-7.950656414031982,5.041570663452148,-0.012308262288570404,-0.01363423652946949,0.02546623907983303,-1101.9390869140625,634.8326416015625,1432.33935546875
1731694743710,0.6880874633789062,-8.113862991333008,5.078190803527832,-0.04308774322271347,-0.04199857637286186,0.029411885887384415,-1101.970703125,634.4130249023438,1432.9075927734375
1731694745210,0.7083820700645447,-8.278366088867188,5.134764671325684,-0.04346594959497452,-0.046996019780635834,0.04046076536178589,-1101.7353515625,634.314697265625,1433.094482421875
1731694745210,0.7272277474403381,-8.404119491577148,5.199842929840088,-0.027967089787125587,-0.03920462727546692,0.04562777280807495,-1101.6435546875,633.4194946289062,1432.614501953125
1731694745210,0.7726302742958069,-8.483564376831055,5.2524495124816895,-0.0029840595088899136,-0.02257809415459633,0.041874587535858154,-1101.5303955078125,634.0457763671875,1432.8017578125
1731694745210,0.8365140557289124,-8.497724533081055,5.278393745422363,0.021758992224931717,-0.0024808868765830994,0.026607085019350052,-1101.8118896484375,634.260498046875,1432.6807861328125
1731694745210,0.8828779458999634,-8.445287704467773,5.279043197631836,0.03840993344783783,0.016914092004299164,0.00623683724552393,-1102.221435546875,634.260498046875,1432.3939208984375
1731694745210,0.8484257459640503,-8.39895248413086,5.285425186157227,0.048350848257541656,0.02982412464916706,-0.005985337775200605,-1101.770751953125,633.9915771484375,1432.273193359375
1731694745210,0.736655056476593,-8.367341041564941,5.290868759155273,0.05374033376574516,0.022108860313892365,-0.01067313365638256,-1102.2835693359375,633.67041015625,1432.4825439453125
1731694745210,0.5693240761756897,-8.238493919372559,5.250277519226074,0.04897559434175491,-0.011231094598770142,-0.010144710540771484,-1102.365478515625,633.67041015625,1432.4251708984375
1731694745210,0.3687565326690674,-7.8305511474609375,5.080751419067383,0.01235379558056593,-0.07067007571458817,-0.00958830676972866,-1101.77734375,634.1279296875,1433.8516845703125
1731694745210,0.1391620635986328,-6.969573974609375,4.690801620483398,-0.0841585248708725,-0.1407562792301178,0.01591174490749836,-1100.3485107421875,634.90673828125,1435.298095703125
1731694745210,-0.16622352600097656,-5.547972202301025,4.05104923248291,-0.2624116837978363,-0.18967600166797638,0.1403978019952774,-1098.3529052734375,635.82177734375,1438.7244873046875
1731694745210,-0.4883563816547394,-3.6684391498565674,3.0863966941833496,-0.6107208132743835,-0.20942364633083344,0.39792299270629883,-1097.713623046875,635.802978515625,1445.1339111328125
1731694745210,-0.8001236915588379,-2.2125236988067627,1.8878074884414673,-1.313186526298523,-0.24272501468658447,0.6613585948944092,-1097.956787109375,635.2763061523438,1452.2806396484375
1731694745210,-1.054513692855835,-2.830946683883667,0.6701558232307434,-2.377523183822632,-0.3182765543460846,0.7759388089179993,-1097.18408203125,636.2872314453125,1459.545654296875
1731694745210,-0.9554751515388489,-6.726494789123535,-0.3224206566810608,-3.4257421493530273,-0.44254282116889954,0.6763909459114075,-1095.409423828125,635.2333374023438,1461.8929443359375
1731694745210,-0.1385643482208252,-12.758282661437988,-0.9166721105575562,-3.866764545440674,-0.5754575729370117,0.4143548309803009,-1094.3143310546875,635.07275390625,1462.944091796875
1731694745210,1.2895557880401611,-18.38714027404785,-1.0461692810058594,-3.3643062114715576,-0.5851280689239502,0.1475965529680252,-1096.8350830078125,635.7649536132812,1463.7545166015625
1731694745210,2.6050376892089844,-22.04482078552246,-0.7570774555206299,-2.0563530921936035,-0.3686506450176239,-0.030240468680858612,-1098.317626953125,634.6332397460938,1459.24658203125
1731694745210,3.1423442363739014,-23.893247604370117,-0.3812263011932373,-0.324467271566391,0.0016416814178228378,-0.15027441084384918,-1100.069091796875,634.5193481445312,1453.205078125
1731694745210,2.8365278244018555,-24.320064544677734,-0.38205480575561523,1.4476555585861206,0.35219094157218933,-0.34866863489151,-1103.529541015625,635.2906494140625,1445.7686767578125
1731694745210,2.0036461353302,-22.945846557617188,-1.0193414688110352,2.884401321411133,0.6439904570579529,-0.7309547662734985,-1105.8895263671875,634.31591796875,1437.63232421875
1731694745210,0.6190437078475952,-19.256481170654297,-1.9332404136657715,3.7903597354888916,0.8967686891555786,-1.144615650177002,-1106.2371826171875,631.4866333007812,1428.7142333984375
1731694745210,-1.0437837839126587,-13.230655670166016,-2.477219820022583,4.224606990814209,0.9973738193511963,-1.3200912475585938,-1108.1309814453125,629.9813842773438,1425.4912109375
1731694745210,-2.169684886932373,-5.710284233093262,-2.323824405670166,4.184354305267334,0.839047372341156,-1.2388290166854858,-1109.45166015625,627.8138427734375,1422.321533203125
1731694745210,-2.3395116329193115,1.6179865598678589,-1.411289930343628,3.600639581680298,0.48114094138145447,-0.9970590472221375,-1109.3636474609375,628.21533203125,1421.672607421875
1731694745210,-1.7736314535140991,7.257314682006836,-0.10176879167556763,2.529644250869751,0.07634773850440979,-0.6182356476783752,-1108.8739013671875,629.3731689453125,1424.9830322265625
1731694745210,-0.9985116720199585,10.424418449401855,0.8589973449707031,1.0351189374923706,-0.2310534417629242,-0.15816718339920044,-1108.14501953125,633.0677490234375,1432.4849853515625
1731694745210,-0.6355719566345215,10.708113670349121,0.8623629808425903,-0.7935805320739746,-0.40534794330596924,0.24857071042060852,-1105.9454345703125,634.48388671875,1442.7684326171875
1731694745210,-1.0784425735473633,8.25209903717041,-0.27535945177078247,-2.6517233848571777,-0.572238564491272,0.561528205871582,-1101.974853515625,634.7359619140625,1453.3116455078125
1731694745210,-1.7805798053741455,3.2661473751068115,-2.547663688659668,-4.118345737457275,-0.8658338189125061,0.9151988625526428,-1096.4591064453125,634.283935546875,1460.253662109375
1731694745210,-1.8263181447982788,-4.609707355499268,-5.236979961395264,-4.860748291015625,-1.110748052597046,1.4481902122497559,-1093.4454345703125,634.85986328125,1464.8414306640625
1731694745210,-1.2542881965637207,-14.8704195022583,-6.734411239624023,-4.716852188110352,-1.0174658298492432,2.0193960666656494,-1090.1524658203125,635.0285034179688,1466.2406005859375
1731694745210,-0.45946216583251953,-24.525367736816406,-5.806654930114746,-3.723797082901001,-0.640338122844696,2.242182970046997,-1091.0709228515625,634.072998046875,1466.6805419921875
1731694745210,0.2628915309906006,-29.806488037109375,-2.7416486740112305,-2.2266933917999268,-0.24802204966545105,1.8285528421401978,-1092.635498046875,634.6793212890625,1464.207763671875
1731694745210,0.6887414455413818,-29.95554542541504,0.7408766746520996,-0.6657346487045288,0.03466464579105377,0.9300102591514587,-1093.938232421875,634.254150390625,1459.7916259765625
1731694745210,0.5981786251068115,-26.906150817871094,2.8326265811920166,0.7271903157234192,0.2103436291217804,-0.03538398817181587,-1096.0977783203125,635.9205932617188,1453.8101806640625
1731694745210,0.18983149528503418,-22.632877349853516,2.7047719955444336,1.8678234815597534,0.32400307059288025,-0.734936535358429,-1097.479248046875,637.3182373046875,1447.9373779296875
1731694745210,-0.2119886875152588,-18.257896423339844,0.8541363477706909,2.6724777221679688,0.4370935261249542,-1.0814927816390991,-1099.615234375,636.2288818359375,1441.224609375
1731694745210,-0.48353666067123413,-13.711979866027832,-1.3845432996749878,3.13247013092041,0.541573166847229,-1.1057788133621216,-1099.7454833984375,635.82177734375,1437.7493896484375
1731694746710,-0.6671891808509827,-8.570772171020508,-2.687807083129883,3.238619327545166,0.5786188840866089,-0.9178708791732788,-1100.8397216796875,634.3687744140625,1434.0819091796875
1731694746710,-0.7902263402938843,-3.214020013809204,-2.4658854007720947,2.9615986347198486,0.512332558631897,-0.6511033773422241,-1101.842041015625,633.5521240234375,1431.3289794921875
1731694746710,-0.8354645371437073,1.3072106838226318,-1.0299956798553467,2.3259432315826416,0.34925535321235657,-0.4050343930721283,-1101.468017578125,634.0980224609375,1431.8408203125
1731694746710,-0.7575064897537231,4.178613662719727,0.6682634353637695,1.4396274089813232,0.12960754334926605,-0.1999969482421875,-1100.220703125,634.4591064453125,1435.1156005859375
1731694746710,-0.5926039814949036,5.265812873840332,1.6910614967346191,0.4076845049858093,-0.08923304080963135,-0.004003128968179226,-1099.3721923828125,636.2431640625,1438.785400390625
1731694746710,-0.5518789887428284,4.769505977630615,1.6830644607543945,-0.6657966375350952,-0.27114295959472656,0.227415069937706,-1095.970947265625,636.373291015625,1444.737060546875
1731694746710,-0.7009342908859253,3.0418808460235596,0.7077313661575317,-1.641871452331543,-0.4164908528327942,0.5306230783462524,-1094.0416259765625,636.1578369140625,1452.0938720703125
1731694746710,-0.9141857624053955,0.0729554295539856,-1.0095970630645752,-2.4336836338043213,-0.4948650598526001,0.8909561634063721,-1090.868896484375,635.3809204101562,1455.234130859375
1731694746710,-1.2477571964263916,-4.856444835662842,-2.8378078937530518,-2.986525297164917,-0.4186708927154541,1.2690433263778687,-1090.5120849609375,634.7901611328125,1461.6981201171875
1731694746710,-1.9283541440963745,-12.049434661865234,-3.6688132286071777,-3.242372989654541,-0.18751466274261475,1.4794812202453613,-1087.808349609375,635.7836303710938,1464.11328125
1731694746710,-2.541160821914673,-19.958126068115234,-2.8320271968841553,-3.019355535507202,0.040712594985961914,1.3789359331130981,-1088.9620361328125,635.5888671875,1464.714599609375
1731694746710,-2.4584248065948486,-25.625059127807617,-0.7033624649047852,-2.2413289546966553,0.14800883829593658,0.931901216506958,-1091.439453125,635.1854248046875,1462.3253173828125
1731694746710,-1.8028926849365234,-27.321889877319336,1.6441938877105713,-1.0755823850631714,0.16307130455970764,0.2678300440311432,-1093.090576171875,635.763671875,1458.9298095703125
1731694746710,-1.1431941986083984,-25.760601043701172,3.030726432800293,0.19205638766288757,0.15117865800857544,-0.4180964231491089,-1096.10400390625,635.5191040039062,1454.5162353515625
1731694746710,-0.7836997509002686,-22.64543914794922,2.8463597297668457,1.3395668268203735,0.14517346024513245,-0.9831571578979492,-1098.6590576171875,636.3184204101562,1448.576416015625
1731694746710,-0.6078222990036011,-18.959091186523438,1.2966454029083252,2.229409694671631,0.19159278273582458,-1.3412076234817505,-1101.149658203125,636.1622314453125,1443.7646484375
1731694746710,-0.4539759159088135,-15.144044876098633,-0.7889769077301025,2.7674827575683594,0.3422589600086212,-1.472625494003296,-1103.1334228515625,634.7254638671875,1438.229248046875
1731694746710,-0.46854400634765625,-11.090750694274902,-2.3121190071105957,2.987461805343628,0.5364834070205688,-1.4012629985809326,-1104.0263671875,633.10009765625,1432.87939453125
1731694746710,-0.6022394299507141,-6.44786262512207,-2.608088970184326,2.9633982181549072,0.6602530479431152,-1.164927363395691,-1105.5191650390625,633.0703125,1429.6068115234375
1731694746710,-0.6636675596237183,-1.5829334259033203,-1.7000304460525513,2.648688554763794,0.6603094935417175,-0.8748399019241333,-1106.64208984375,632.177001953125,1429.6412353515625
1731694746710,-0.6183170676231384,2.5592451095581055,-0.11926493048667908,1.9762510061264038,0.5372629165649414,-0.6432174444198608,-1105.79736328125,633.3952026367188,1431.5731201171875
1731694746710,-0.5645804405212402,5.2074079513549805,1.4004480838775635,0.9867526888847351,0.3184477686882019,-0.45592600107192993,-1105.4267578125,634.1876220703125,1435.7510986328125
1731694746710,-0.6715784072875977,6.147641181945801,2.2982866764068604,-0.19203537702560425,0.03335762768983841,-0.23637263476848602,-1105.5228271484375,635.74267578125,1441.29296875
1731694746710,-1.081961750984192,5.557175159454346,2.281890869140625,-1.386961579322815,-0.312174916267395,0.06008102744817734,-1102.6446533203125,635.453125,1447.4688720703125
1731694746710,-1.6693172454833984,3.565502405166626,1.066626787185669,-2.44355845451355,-0.7454838752746582,0.38849419355392456,-1098.9964599609375,634.9887084960938,1457.077880859375
1731694746710,-1.9203320741653442,-0.5052767395973206,-1.4701520204544067,-3.2698113918304443,-1.1530438661575317,0.7932232618331909,-1094.5916748046875,633.7841186523438,1462.2939453125
1731694746710,-1.7437041997909546,-7.698647975921631,-4.299660682678223,-3.6892032623291016,-1.259321689605713,1.3345381021499634,-1091.2578125,635.4219970703125,1465.37841796875
1731694746710,-1.352229118347168,-16.619144439697266,-5.689337730407715,-3.5151426792144775,-1.0077078342437744,1.781715750694275,-1090.20947265625,635.2532348632812,1467.019287109375
1731694746710,-0.7574331760406494,-23.773643493652344,-4.833870887756348,-2.743154764175415,-0.6064833402633667,1.7949186563491821,-1090.634765625,635.208984375,1467.1036376953125
1731694746710,0.07901906967163086,-26.599376678466797,-2.414825201034546,-1.5986218452453613,-0.2504703998565674,1.2926828861236572,-1091.6676025390625,635.0907592773438,1464.91748046875
1731694746710,0.7520742416381836,-25.2015438079834,0.17903470993041992,-0.38392436504364014,0.034888818860054016,0.5495288372039795,-1092.8685302734375,634.9445190429688,1461.7510986328125
1731694746710,0.752047061920166,-21.8588809967041,1.8221547603607178,0.6696678400039673,0.23420673608779907,-0.14566202461719513,-1094.8875732421875,635.0472412109375,1456.963134765625
1731694746710,0.17697298526763916,-18.397235870361328,2.1111955642700195,1.486358642578125,0.29565107822418213,-0.6695689558982849,-1097.9217529296875,636.13720703125,1453.9739990234375
1731694746710,-0.43323802947998047,-15.631614685058594,1.2896535396575928,2.0369253158569336,0.25558847188949585,-1.0142357349395752,-1100.190673828125,636.2120361328125,1448.1484375
1731694746710,-0.7234079837799072,-13.643560409545898,0.02642512321472168,2.370986223220825,0.2087515890598297,-1.2007930278778076,-1101.6566162109375,635.5802001953125,1442.9195556640625
1731694746710,-0.6904501914978027,-11.52790355682373,-0.9417840242385864,2.5729076862335205,0.21262186765670776,-1.2219457626342773,-1102.8292236328125,635.412109375,1436.923095703125
1731694746710,-0.5336171984672546,-8.575366973876953,-1.1218581199645996,2.653050661087036,0.269524484872818,-1.056653380393982,-1105.09716796875,634.5611572265625,1434.4088134765625
1731694746710,-0.34048351645469666,-4.943243980407715,-0.5376833081245422,2.51625394821167,0.31188249588012695,-0.8099047541618347,-1105.4095458984375,633.61181640625,1433.28564453125
1731694746710,-0.12193435430526733,-1.2665231227874756,0.4333055913448334,2.0563714504241943,0.27859053015708923,-0.5954291820526123,-1105.4195556640625,634.5069580078125,1433.82275390625
1731694748210,0.05920356512069702,1.6843823194503784,1.3440054655075073,1.2682032585144043,0.18029247224330902,-0.4031401574611664,-1104.0594482421875,634.8319091796875,1436.9365234375
1731694748210,0.07406166195869446,3.474696636199951,1.8476307392120361,0.25176239013671875,0.055134423077106476,-0.1677684634923935,-1102.8343505859375,635.2850952148438,1442.160888671875
1731694748210,-0.20690572261810303,4.049004077911377,1.7155929803848267,-0.8763725757598877,-0.08526702970266342,0.13446582853794098,-1100.03271484375,635.2725830078125,1448.09716796875
1731694748210,-0.7842329740524292,3.0826077461242676,0.785794198513031,-2.018026828765869,-0.2773146331310272,0.45688265562057495,-1097.4287109375,634.6737060546875,1456.7568359375
1731694748210,-1.2427021265029907,-0.6189444661140442,-0.9500988721847534,-2.9950406551361084,-0.48985448479652405,0.8279454112052917,-1093.89208984375,634.1377563476562,1459.725830078125
