Timestamp,Accel_X,Accel_Y,Accel_Z,Gyro_X,Gyro_Y,Gyro_Z
1739651254.2586288,16900,2124,572,2363,-6421,-434
1739651254.2596328,16932,2124,380,2494,-6369,-166
1739651254.2606378,16768,2076,140,2642,-6408,57
1739651254.2606378,16596,2200,360,2818,-6139,205
1739651254.2616858,16484,2448,440,2903,-5924,199
1739651254.2736351,16360,2416,480,2847,-5762,111
1739651254.2736351,16320,2276,340,2759,-5767,34
1739651254.2751644,16688,1924,212,2748,-5421,27
1739651254.2751644,16784,1932,-8,2739,-5318,67
1739651254.2761698,16456,2036,-288,2809,-5356,31
1739651254.2882578,16792,1768,-288,2886,-5318,-169
1739651254.2891712,16832,1888,-408,2956,-5372,-263
1739651254.2901702,17432,1976,-348,3023,-5250,-306
1739651254.291213,17364,2164,-396,3035,-5405,-213
1739651254.291213,17496,2164,-580,3039,-5892,-149
1739651254.303296,17764,2112,-528,3164,-6185,0
1739651254.3041706,17348,2064,-612,3228,-6816,257
1739651254.3051698,17300,1980,-112,3233,-7185,458
1739651254.3051698,16840,1988,-304,3106,-7686,619
1739651254.3061707,16856,1864,-320,3044,-7776,760
1739651254.319173,16768,1740,-424,3006,-7818,1002
1739651254.319173,16776,1816,-512,3013,-7530,1171
1739651254.3201733,16664,1864,-472,3049,-6998,1326
1739651254.3201733,16380,2092,-480,2980,-6361,1397
1739651254.3211694,16196,2128,-724,2850,-6048,1296
1739651254.3333027,16168,2000,-720,2789,-5496,1262
1739651254.3343017,16216,1940,-848,2840,-5001,1256
1739651254.3353133,16196,1904,-1148,2896,-4617,1213
1739651254.3353133,16264,1900,-1164,3044,-3914,1222
1739651254.3373685,16268,1808,-1488,3098,-3530,1136
1739651254.349411,16436,1996,-1468,3237,-2513,1098
1739651254.349411,16592,1932,-1524,3360,-1674,995
1739651254.349411,16660,2004,-1500,3475,-943,965
1739651254.3504076,16804,1964,-1600,3652,-308,935
1739651254.3515575,16772,1940,-1648,3875,147,961
1739651254.3634083,17008,1804,-1840,4203,249,1124
1739651254.3644078,17164,1628,-1656,4580,207,1257
1739651254.3644078,17080,1604,-1296,4842,-158,1375
1739651254.3654091,17056,1556,-624,4907,-578,1458
1739651254.366409,16988,1528,-228,4871,-986,1534
1739651254.3784087,16792,1564,-40,4633,-1523,1542
1739651254.3784087,16820,1548,336,4315,-1889,1474
1739651254.3798423,17124,1540,196,4068,-2148,1436
1739651254.3808477,17132,1344,116,3809,-2445,1495
1739651254.3818483,16940,1224,-44,3417,-3009,1429
1739651254.3938496,17112,1184,-120,3164,-2982,1407
1739651254.3938496,16992,1008,-540,2886,-3233,1416
1739651254.394851,16956,988,-1028,2699,-3485,1351
1739651254.3958504,17096,960,-1424,2574,-3522,1277
1739651254.3968468,17196,880,-1428,2487,-3348,1294
1739651254.4239664,17200,1016,-1716,2377,-3157,1278
1739651254.4239664,17100,1096,-1736,2297,-2910,1267
1739651254.4250164,17104,1184,-1768,2223,-2608,1230
1739651254.4260037,17004,1056,-1544,2199,-2188,1244
1739651254.4260037,16744,1128,-1632,2121,-1855,1215
1739651254.426963,16656,1280,-1716,2057,-1720,1143
1739651254.4280157,16536,1288,-1816,2053,-1410,1115
1739651254.4289675,16540,1248,-1540,2039,-1014,1127
1739651254.4300156,16280,1340,-1432,1989,-621,1038
1739651254.4300156,16180,1252,-1248,1965,-309,981
1739651254.4313571,16304,1296,-1236,1849,-152,886
1739651254.438875,16304,1176,-1136,1839,92,842
1739651254.438875,16248,1260,-1092,1736,40,802
1739651254.4400163,16552,1176,-1416,1715,-30,870
1739651254.4531512,16540,1164,-1284,1722,-207,905
1739651254.4540908,16612,1184,-1400,1742,-411,946
1739651254.455093,16636,1372,-1608,1792,-474,982
1739651254.455093,16740,1268,-1524,1835,-528,1010
1739651254.4560921,16624,1408,-1436,1840,-541,1075
1739651254.4570944,16552,1484,-1444,1792,-536,1012
1739651254.468578,16428,1680,-1608,1783,-424,927
1739651254.468578,16364,1648,-1736,1757,-221,808
1739651254.469581,16380,1616,-1584,1729,-87,691
1739651254.4705775,16560,1500,-1680,1660,-8,587
1739651254.4717262,16676,1316,-1736,1613,37,630
1739651254.483579,16700,1244,-1944,1612,132,744
1739651254.483579,16744,1256,-1996,1584,215,837
1739651254.4845796,16688,1048,-2092,1697,275,994
1739651254.4855807,16640,796,-2112,1877,412,1329
1739651254.4866269,16316,936,-2112,1883,333,1605
1739651254.4989643,16072,1460,-1656,1621,465,1505
1739651254.4989643,16296,1592,-1544,1384,805,1388
1739651254.4999766,16480,1640,-1704,1097,1194,1289
1739651254.4999766,16540,1472,-1804,961,1492,1036
1739651254.5019765,16888,1412,-1916,889,1575,813
1739651254.5140805,17084,1132,-1768,894,1805,832
1739651254.5140805,16956,676,-1868,1094,1921,1097
1739651254.5149777,16608,488,-2036,1297,1796,1319
1739651254.5149777,16436,884,-1760,1455,1523,1323
1739651254.517001,16548,948,-1628,1566,1221,1471
1739651254.5282507,16764,1380,-1328,1372,889,1216
1739651254.5291224,17016,1432,-1340,1211,762,1188
1739651254.5291224,17016,1388,-1784,1076,731,1166
1739651254.53063,17312,1184,-1984,1239,827,812
1739651254.5317512,17764,436,-2328,1455,761,1261
1739651254.5435274,17320,460,-2052,1455,607,1851
1739651254.5444255,16940,900,-1628,1016,458,2158
1739651254.5444255,16804,1304,-1740,1074,679,1390
1739651254.5454247,17508,896,-1376,887,754,1475
1739651254.5465581,17012,1400,-1620,281,1112,1497
1739651254.5590231,17596,1156,-1816,363,1523,947
1739651254.5595276,17280,1772,-1952,79,1922,798
1739651254.5595276,17780,1176,-1668,113,2503,488
1739651254.5606496,17324,1336,-1628,-199,3195,648
1739651254.5615377,16980,1344,-2004,-106,3765,272
1739651254.573568,17024,1420,-1768,-144,4206,129
1739651254.5745375,17104,1008,-1596,-437,4857,499
1739651254.5745375,16628,1384,-2048,-115,5782,-40
1739651254.575534,17404,1068,-1652,-317,6692,325
1739651254.5766702,17064,1272,-2280,-146,7772,-68
1739651254.5885632,17832,1148,-1904,-408,9008,232
1739651254.5895693,17652,1368,-2060,-596,10128,-2
1739651254.6032412,18288,1076,-1688,-1246,11248,571
1739651254.6041033,17672,1448,-2260,-1552,12162,384
1739651254.6051054,17840,1420,-2076,-2150,12785,655
1739651254.6061044,17872,1652,-1884,-2897,13181,824
1739651254.6061044,17892,1688,-2012,-3608,13528,964
1739651254.6071026,17552,1696,-1860,-4230,13638,981
1739651254.6081042,17432,1696,-2132,-4474,13280,946
1739651254.6081042,17208,1628,-1756,-4691,12532,963
1739651254.6095417,17084,1748,-1580,-4885,11870,1064
1739651254.6185496,17148,1868,-1576,-4948,10967,1211
1739651254.6185496,17044,1908,-1280,-4958,10121,1440
1739651254.6205494,17500,2020,-1336,-4951,9354,1789
1739651254.633677,17580,2408,-1056,-4806,8571,2044
1739651254.633677,18092,2652,-1204,-4679,7879,2243
1739651254.635064,18564,3064,-928,-4609,7124,2499
1739651254.636069,19156,3464,-1004,-4388,6560,2620
1739651254.636069,19680,3548,-1084,-3738,6344,2403
1739651254.6370711,20400,3532,-672,-3420,6047,2357
1739651254.6485841,20320,3452,-408,-3278,5815,2446
1739651254.6497693,19160,2300,-1380,-1320,5597,1227
1739651254.6497693,18268,448,-1180,792,3683,48
1739651254.6507764,17520,-2112,-832,2219,3748,-1274
1739651254.6517758,15624,-8244,-1948,3443,4573,-6082
1739651254.663774,17704,-4360,176,2953,4280,-6113
1739651254.663774,13636,-6320,2428,2894,2497,-8419
1739651254.664778,20392,2864,3804,1604,4441,-7505
1739651254.6657748,23876,6004,3936,1118,3615,-7249
1739651254.6667767,17324,5236,2792,538,-24,-6769
1739651254.6787794,20816,7788,1992,689,1161,-5471
1739651254.6787794,21412,6828,1408,1757,-149,-4885
1739651254.6797826,17688,4924,1052,3316,-4532,-4435
1739651254.6808376,19528,5324,2928,4244,-6810,-3889
1739651254.681774,19316,4380,3132,4739,-9560,-3635
1739651254.693974,19372,4372,2452,5141,-10719,-3044
1739651254.693974,19416,3800,2584,5705,-12711,-2787
1739651254.6949468,19532,3300,3052,5923,-14153,-2470
1739651254.6958497,20244,2904,3456,5997,-15150,-2262
1739651254.6968598,20424,2080,3288,6128,-17124,-2143
1739651254.7089448,21200,784,4136,6599,-20074,-2196
1739651254.72409,21944,148,5308,6918,-24109,-2467
1739651254.72409,23072,20,6740,7038,-28684,-2830
1739651254.7251031,23356,1104,6572,6934,-32768,-2832
1739651254.7388568,22684,1884,6756,6972,-32768,-3016
1739651254.7388568,22568,3528,5860,7158,-32768,-2937
1739651254.7398634,21472,3976,5184,7574,-32768,-3021
1739651254.7408643,21200,4632,3936,8145,-32768,-2932
1739651254.7418635,19828,3876,2932,8716,-32768,-3007
1739651254.7418635,19204,4144,2020,9408,-32768,-2889
1739651254.7428634,18420,4440,1636,9996,-32768,-2787
1739651254.743865,17148,3984,776,10707,-32768,-2729
1739651254.7449572,16724,4452,428,11110,-32768,-2473
1739651254.7449572,16352,4192,12,11643,-32768,-2334
1739651254.7468636,13888,4216,-1056,11933,-32768,-1796
1739651254.7468636,13240,3388,-280,12298,-32768,-1691
1739651254.748868,13792,2776,468,12309,-32768,-1508
1739651254.7543173,13160,2432,-20,12107,-32768,-1153
1739651254.7543173,12232,1872,-268,12130,-32768,-976
1739651254.7684717,11548,656,376,12487,-32768,-1143
1739651254.7684717,10864,-556,1260,12914,-32768,-1476
1739651254.7694705,11072,-1512,1928,13476,-32768,-1892
1739651254.77047,11600,-2224,2224,14350,-32768,-2366
1739651254.77147,12140,-2828,2300,15605,-32768,-2830
1739651254.772497,12436,-2592,2920,16925,-32768,-3246
1739651254.8135598,12656,-1796,3276,18519,-32768,-3678
1739651254.814476,12428,-1672,4164,19931,-32768,-4315
1739651254.815475,11756,-1740,4836,21209,-32768,-4998
1739651254.815475,10884,-1816,5064,22448,-32768,-5805
1739651254.81648,10244,-2404,5392,23825,-32768,-6497
1739651254.8174818,9556,-2644,5436,25304,-32768,-6822
1739651254.8184755,9080,-2852,5508,26853,-32768,-6878
1739651254.8194783,8532,-2768,6068,28398,-32768,-6757
1739651254.8194783,7584,-2800,6812,29575,-31776,-6731
1739651254.8204815,7308,-2736,7632,30805,-29436,-6831
1739651254.821475,5176,-3020,7820,31851,-28016,-6880
1739651254.8224723,3928,-3264,8000,32767,-26666,-7243
1739651254.8224723,2240,-3912,8556,32767,-24934,-7403
1739651254.8234742,164,-4400,8380,32767,-23280,-7558
1739651254.828575,-1856,-5048,8464,32767,-21327,-7594
1739651254.8294826,-3688,-5308,8452,32767,-19138,-7443
1739651254.8294826,-5472,-5648,8796,32767,-17013,-6946
1739651254.8304832,-7412,-5716,8608,32767,-14750,-6167
1739651254.831484,-9276,-5880,9016,32767,-12570,-5322
1739651254.8324802,-11136,-6600,9184,32767,-10398,-4254
1739651254.8440464,-12912,-7072,9256,32767,-8385,-3114
1739651254.8440464,-14428,-7300,9208,32767,-6373,-1910
1739651254.8450441,-16040,-7768,9052,32767,-4575,-534
1739651254.8460388,-17364,-8468,9108,32767,-2760,957
1739651254.8470402,-18472,-9448,9392,32767,-942,2549
1739651254.8590474,-19140,-10488,9548,32767,944,4195
1739651254.8590474,-19500,-11400,9648,32767,3090,5851
1739651254.8600423,-19712,-12312,9672,32767,5364,7534
1739651254.8610835,-19676,-13232,9720,32767,7690,9308
1739651254.8620436,-20180,-14372,10492,32767,10026,11105
1739651254.8741765,-20444,-15460,11204,32767,12485,13156
1739651254.8741765,-20292,-16152,11928,32767,14654,15412
1739651254.8751743,-20036,-16796,12444,32767,16458,17871
1739651254.8762572,-19704,-17356,13184,32767,17531,20393
1739651254.8771749,-18984,-18028,13816,32767,18388,22990
1739651254.888259,-18352,-18972,14176,32767,18065,25699
1739651254.8891778,-17716,-19956,14520,32767,17055,28439
1739651254.8901732,-16952,-20836,14592,32767,15209,31228
1739651254.891275,-15952,-21552,15060,32767,13118,32767
1739651254.8921733,-15220,-22196,14984,32767,10971,32767
1739651254.9034653,-14720,-23192,15128,32767,8321,32767
1739651254.9043248,-13796,-24136,14908,32767,6242,32767
1739651254.9052978,-12732,-25352,14912,32767,4308,32767
1739651254.9063196,-11356,-26656,14776,32767,2992,32767
1739651254.9072964,-10084,-28044,14684,32767,1717,32767
1739651254.9184973,-8760,-29368,14768,32767,658,32767
1739651254.9195051,-7544,-30912,14632,32767,-341,32767
1739651254.9195051,-6284,-32232,14864,32767,-1037,32767
1739651254.9205022,-5052,-32768,15064,32767,-1666,32767
1739651254.921498,-3340,-32768,15056,32767,-2000,32767
1739651254.9337602,-2032,-32768,15092,32767,-2478,32767
1739651254.9337602,-144,-32768,15320,32767,-2615,32767
1739651254.9349294,1084,-32768,15624,32767,-2817,32767
1739651254.9360285,2500,-32768,15616,32767,-2929,32767
1739651254.937039,3616,-32768,15284,32767,-2403,32767
1739651254.9482276,4764,-32768,14816,32767,-1543,32767
1739651254.9495184,5888,-32768,14776,32767,-477,32767
1739651254.9495184,6568,-32768,15164,32767,491,32767
1739651254.9505298,7188,-32768,15812,32767,1326,32767
1739651254.9518404,7520,-32768,16692,32767,2471,32767
1739651254.9639423,7968,-32768,16940,32767,3638,32767
1739651254.9639423,8060,-32768,16672,32767,4777,32767
1739651254.9648492,8256,-32768,16648,32767,6404,32767
1739651254.9658496,9168,-32768,16628,32767,8801,32767
1739651254.9669569,8908,-32768,16560,32767,11552,32767
1739651254.9788473,9292,-32768,17532,32767,14774,32767
1739651254.9788473,9680,-32768,18576,32767,17853,32767
1739651254.97985,9032,-32768,19144,32767,19890,32767
1739651254.980918,10684,-32768,21208,32767,20676,32767
1739651254.9818535,12760,-32768,21228,32767,21198,32712
1739651254.9938512,14716,-32768,18476,32767,20492,31023
1739651254.9938512,20732,-32768,17072,32767,20577,29782
1739651254.99509,26476,-32768,17320,32767,20149,29496
1739651254.9960945,27660,-32768,17752,32767,19024,28890
1739651254.997109,27584,-32768,19508,32767,16168,27842
1739651255.0093932,27868,-32768,21552,32767,9123,25983
1739651255.0093932,27988,-32768,20500,32767,645,23354
1739651255.0103927,27908,-32768,16980,32767,-6013,20298
1739651255.0103927,28820,-32768,12412,32767,-9783,16560
1739651255.0124254,30732,-32768,8984,32767,-10190,12282
1739651255.0233026,1892,-32768,1704,32767,-22978,13960
1739651255.0243106,32767,-32768,-18084,32767,32767,-25634
1739651255.0253115,32767,-32768,-32768,32767,32767,-23612
1739651255.0263088,-32768,-32768,-4704,32767,32767,-7405
1739651255.0263088,29628,-32768,32767,32767,-12219,-1228
1739651255.0389524,32767,-32768,26192,32767,-26865,-1291
1739651255.0389524,32767,-32768,3300,32767,-28850,-2542
1739651255.0399573,32767,-32768,-3620,32767,-2271,-8873
1739651255.0410533,32767,-32768,-4688,32767,16811,-15157
1739651255.0419588,29996,-32768,-7672,32767,27536,-20461
1739651255.0539858,28228,-32768,-7824,32767,32767,-24470
1739651255.0539858,26972,-32768,-6312,32767,32767,-27349
1739651255.0549595,25088,-32768,-5364,32767,32767,-28886
1739651255.0559597,22632,-32768,-4196,32767,32767,-29542
1739651255.057051,21336,-32768,-5008,32544,32767,-29972
1739651255.0689585,19208,-32768,-5956,28409,32767,-30197
1739651255.0689585,16888,-32768,-7416,24402,32767,-30158
1739651255.069971,14840,-32768,-7056,20454,32767,-30042
1739651255.0710666,13628,-32768,-6728,16706,32767,-29423
1739651255.0719814,12216,-32768,-5632,13123,32767,-28655
1739651255.084105,10464,-32768,-4132,9186,32767,-27923
1739651255.098552,9632,-32768,-2496,5202,32767,-26888
1739651255.0995493,8396,-32768,-1152,1309,32767,-25631
1739651255.0995493,6732,-32768,920,-2199,32767,-24243
1739651255.100562,7076,-32768,2840,-5340,32767,-22886
1739651255.101661,8788,-32768,4424,-8032,32767,-20977
1739651255.1025534,9704,-32768,5232,-10047,32767,-18935
1739651255.1035473,9756,-32768,7284,-11480,32767,-16752
1739651255.1035473,9660,-32768,9908,-13072,32767,-14703
1739651255.1045492,10956,-32768,12672,-14760,32767,-12524
1739651255.1056995,13076,-32768,13768,-16336,32767,-10223
1739651255.1136165,13536,-32768,14296,-17543,32767,-7749
1739651255.1145587,15012,-32768,14808,-18441,32767,-5496
1739651255.1145587,17280,-32768,16148,-19143,32726,-3241
1739651255.1289737,20440,-32768,17220,-19226,30360,-1250
1739651255.1289737,22800,-32768,17544,-19246,27989,282
1739651255.1299706,24896,-32768,17136,-19054,25597,1561
1739651255.131066,26108,-32768,16568,-18794,22792,2552
1739651255.131066,27076,-32768,16272,-18502,20854,2885
1739651255.1325655,27912,-32768,15716,-18480,18797,2409
1739651255.1434648,30176,-32768,15364,-18385,18317,2510
1739651255.144333,30244,-32768,13736,-19132,17886,2453
1739651255.1453364,31096,-32768,12024,-20721,15753,2113
1739651255.1463332,31064,-32768,11488,-22386,15256,1973
1739651255.1463332,31892,-32768,10064,-24760,13482,1893
1739651255.1583374,32152,-32768,10060,-26496,15222,1811
1739651255.1593344,31700,-32768,9748,-28724,16783,1679
1739651255.1593344,31856,-32768,9008,-30921,18406,1633
1739651255.1603332,31792,-32768,8552,-32768,19538,1910
1739651255.1613715,31936,-32768,8052,-32768,20224,2350
1739651255.1734607,31812,-32768,7128,-32768,19927,3111
1739651255.1743329,32196,-32768,6512,-32768,19010,4232
1739651255.1753316,31928,-32768,6256,-32768,17293,5698
1739651255.1763327,32588,-32768,5848,-32768,15706,7418
1739651255.1763327,32767,-32768,5928,-32768,13485,9374
1739651255.1883352,32767,-32768,5776,-32768,10657,11405
1739651255.2034807,32767,-32768,5240,-32768,6807,13498
1739651255.2054434,32767,-32768,4740,-32768,2324,15582
1739651255.2054434,32767,-32768,4776,-32768,-2384,17821
1739651255.2065916,32767,-32768,4980,-32768,-7675,20213
1739651255.2076006,32767,-32768,6336,-32768,-13222,22709
1739651255.2076006,32767,-32768,6796,-32768,-18629,25337
1739651255.218602,32767,-32768,2952,-32768,-21098,26842
1739651255.219599,32767,-32768,948,-32768,-22069,27377
1739651255.2205994,32767,-32768,2088,-32768,-21202,27594
1739651255.2205994,32767,-32768,4096,-32768,-19789,27353
1739651255.2216563,32767,-31816,3620,-32768,-21391,26781
1739651255.2226954,32767,-29444,4164,-32768,-20343,26095
1739651255.2226954,32767,-26940,5020,-32768,-19957,25667
1739651255.2236006,32767,-24056,6148,-32768,-19390,25158
1739651255.2246068,32767,-21348,6992,-32768,-19035,24686
1739651255.233702,32767,-18348,7776,-32768,-19538,23940
1739651255.248319,32767,-15724,8172,-32768,-21312,22926
1739651255.2496934,32767,-13212,8720,-32768,-24125,21700
1739651255.2496934,32767,-10412,8700,-32768,-27587,20401
1739651255.2506993,32767,-8076,8840,-32768,-31287,19127
1739651255.2527027,32767,-6064,8744,-32768,-32768,18102
1739651255.2527027,32767,-4400,8524,-32768,-32768,17030
1739651255.2537038,32767,-3188,8368,-32768,-32768,16106
1739651255.2537038,32767,-1844,8324,-32768,-32768,15273
1739651255.254753,32767,-596,7928,-32768,-32768,14563
1739651255.2637901,32767,1124,7364,-32768,-32768,13912
1739651255.2637901,32767,2352,7396,-32768,-32768,13189
1739651255.2646992,32767,4284,7368,-32768,-32768,12384
1739651255.278408,32767,6076,7428,-32768,-32768,11561
1739651255.2793107,32767,8156,7844,-32768,-32768,10703
1739651255.2803092,32767,9340,8276,-32768,-32768,9956
1739651255.2813103,32767,11180,9264,-32768,-32768,9098
1739651255.2813103,32767,12852,10380,-32768,-32768,8198
1739651255.282349,32767,14164,11028,-32768,-32768,7283
1739651255.2943103,32512,15660,12016,-32768,-32768,6388
1739651255.3085983,30352,16852,13212,-32768,-32768,5327
1739651255.3094995,28260,17888,13912,-32768,-32768,4318
1739651255.3104966,26000,18852,14292,-32768,-32768,3288
1739651255.3104966,24092,19584,14668,-32768,-32768,2314
1739651255.3114972,22212,20304,15304,-32768,-32768,1452
1739651255.3125367,20248,20896,15568,-32768,-32768,652
1739651255.313513,18592,21048,16008,-32768,-32768,-103
1739651255.313513,16724,20952,16240,-32768,-32768,-863
1739651255.314496,15384,20656,16560,-32768,-32768,-1551
1739651255.3154979,13736,20568,16656,-32768,-32768,-2331
1739651255.3236158,12392,20556,16792,-32768,-32768,-3099
1739651255.324626,11096,20428,16888,-32768,-32768,-3874
1739651255.3256483,9772,20416,16812,-32768,-32768,-4581
1739651255.337829,8544,20300,16984,-32768,-32768,-5311
1739651255.3393462,7252,20332,17376,-32768,-32768,-5946
1739651255.3403807,6056,20436,17412,-32768,-32768,-6654
1739651255.3403807,4944,20192,18020,-32768,-32768,-7306
1739651255.3423562,4148,20140,18292,-32768,-32768,-8000
1739651255.3423562,3488,19984,18784,-31593,-32768,-8615
1739651255.3534923,2576,20236,19304,-29784,-32768,-9220
1739651255.354357,1516,20084,19776,-27646,-32768,-9674
1739651255.3553565,188,20284,19872,-25363,-32768,-10002
1739651255.3553565,-416,20412,20380,-23051,-32768,-10027
1739651255.357452,-1548,20796,20296,-20782,-32768,-9813
1739651255.3683572,-2016,20388,20464,-18500,-32768,-9315
1739651255.3693566,-3436,20132,20364,-16365,-32768,-9028
1739651255.3703592,-4540,19444,20144,-14381,-32768,-8621
1739651255.3703592,-4688,19224,19728,-12391,-32768,-8240
1739651255.3724449,-4944,18228,18776,-10062,-32768,-7569
1739651255.3833578,-5220,17772,17188,-7665,-32768,-6523
1739651255.3843575,-6044,16760,17000,-5573,-32768,-5519
1739651255.3854542,-7064,15640,16372,-3843,-32768,-4261
1739651255.3854542,-8116,14312,15628,-2425,-32768,-3060
1739651255.3873575,-8396,13044,14772,-1266,-32768,-1812
1739651255.398364,-9184,11740,13212,-223,-32768,-318
1739651255.4134812,-10612,10188,12444,385,-32768,980
1739651255.4143565,-11392,9028,11740,766,-32768,1946
1739651255.415356,-12140,8576,11116,658,-32768,2806
1739651255.415356,-12936,7704,9396,174,-32768,3722
1739651255.4163566,-12724,7236,8564,-391,-32768,4358
1739651255.4294827,-12520,6904,7780,-1228,-32768,4941
1739651255.4294827,-13252,6720,6392,-2519,-32768,5591
1739651255.4304812,-12152,5672,5240,-3511,-32768,6348
1739651255.4304812,-10852,5264,5800,-3991,-32768,6985
1739651255.431477,-11656,5124,4976,-5173,-32768,7424
1739651255.4324768,-11444,4644,4192,-6072,-32768,7589
1739651255.4334779,-10972,3976,3984,-6906,-32768,7508
1739651255.4334779,-10416,3580,4092,-7610,-32768,7369
1739651255.435477,-10404,3256,2872,-8631,-32768,7197
1739651255.435477,-9544,2828,2316,-9479,-32768,7003
1739651255.4439352,-9240,2456,1948,-10335,-32768,6782
1739651255.4439352,-8936,2124,1920,-11151,-32768,6458
1739651255.445933,-8372,1656,2092,-12084,-32768,5938
1739651255.4589324,-8156,768,2072,-12840,-31994,5340
1739651255.4589324,-7700,-128,1932,-13614,-30820,4622
1739651255.4600046,-7276,-456,1872,-14164,-29525,3903
1739651255.460932,-7256,-1020,1868,-14617,-28421,3073
1739651255.461978,-6496,-1384,1936,-14952,-27172,2202
1739651255.461978,-6196,-1752,2116,-15296,-26006,1231
1739651255.4739387,-5888,-2424,2260,-15659,-25079,235
1739651255.4739387,-5804,-3192,2424,-15968,-24260,-914
1739651255.4749331,-5716,-3832,2456,-16149,-23541,-2146
1739651255.4760275,-5376,-3876,2536,-16386,-22672,-3450
1739651255.476931,-5200,-4184,2132,-16516,-21990,-4739
1739651255.4889321,-5356,-4412,1820,-16511,-21311,-6046
1739651255.4889321,-5256,-4692,1980,-16530,-20443,-7376
1739651255.4899328,-5312,-5104,1844,-16564,-19576,-8553
1739651255.4910262,-5784,-5556,1720,-16543,-18708,-9590
1739651255.4919343,-6080,-5688,1732,-16437,-18092,-10579
1739651255.504023,-6416,-6344,1588,-16227,-17147,-11412
1739651255.5181732,-6524,-6724,1648,-16047,-16867,-12079
1739651255.5191758,-6864,-7096,1064,-15874,-16628,-12336
1739651255.5202641,-7300,-7292,880,-15638,-16568,-12717
1739651255.5211701,-7460,-7592,888,-15495,-16424,-12832
1739651255.5221715,-7524,-7948,800,-15381,-16335,-12782
1739651255.5221715,-7892,-8360,432,-15358,-16283,-12680
1739651255.5232446,-8448,-8696,344,-15254,-16039,-12635
1739651255.52417,-8572,-9024,88,-15132,-15658,-12519
1739651255.534308,-8936,-9648,-828,-14920,-15434,-12187
1739651255.548678,-9352,-10088,-916,-14455,-14852,-12287
1739651255.5496871,-9392,-10292,-1180,-14111,-14169,-12189
1739651255.5496871,-9492,-10436,-1536,-13722,-13298,-11830
1739651255.551677,-10104,-10740,-1324,-13323,-12376,-11728
1739651255.551677,-10432,-10712,-1696,-13060,-11357,-11638
1739651255.5528018,-10844,-10864,-1472,-12702,-10101,-11256
1739651255.553681,-11500,-10840,-1304,-12297,-8835,-10896
1739651255.5547695,-12000,-10668,-1316,-11863,-7450,-10402
1739651255.5547695,-12544,-10744,-1416,-11366,-6118,-9729
1739651255.556677,-12340,-10736,-1000,-10853,-4711,-9015
1739651255.556677,-12236,-10852,-1108,-10310,-3399,-7984
1739651255.557678,-12104,-10836,-1296,-9657,-2520,-6971
1739651255.56304,-12184,-10740,-1332,-8940,-2126,-5710
1739651255.564933,-12152,-10748,-1300,-8247,-2131,-4374
1739651255.5790555,-12212,-10692,-1016,-7692,-2314,-2953
1739651255.5790555,-12276,-10868,-624,-7344,-2788,-1498
1739651255.5800931,-12148,-11252,-68,-7094,-3413,-1
1739651255.5810697,-12344,-11896,-124,-6869,-4143,1520
1739651255.5810697,-12148,-12716,-52,-6589,-4971,3106
1739651255.5823667,-11764,-13676,-208,-6231,-6013,4898
1739651255.5936325,-12200,-14416,-780,-5825,-7676,7014
1739651255.5945356,-11988,-14776,-788,-5557,-9584,9195
1739651255.5945356,-12196,-14908,-812,-5475,-11834,11486
1739651255.5955343,-12424,-15272,-1168,-5499,-14087,13674
1739651255.597538,-12776,-16008,-1900,-5500,-16236,15649
1739651255.6085389,-12944,-16784,-2708,-5439,-18365,17553
1739651255.623912,-13396,-17580,-3332,-5316,-19915,19283
1739651255.623912,-13800,-17828,-3576,-5231,-21305,20816
1739651255.624918,-14136,-18080,-4244,-5118,-22361,22153
1739651255.625964,-14820,-18120,-4472,-5079,-23010,23291
1739651255.6269202,-15112,-17776,-4616,-5173,-23011,24183
1739651255.627917,-15444,-17500,-5388,-5317,-22777,24698
1739651255.627917,-15308,-17028,-5100,-5490,-21452,25131
1739651255.6292303,-15124,-16368,-5912,-5829,-19896,25362
1739651255.6303232,-15096,-15672,-6064,-6322,-17621,25601
1739651255.6312568,-15400,-15120,-5872,-6962,-15305,25892
1739651255.6382556,-15280,-14868,-5396,-7818,-12315,26154
1739651255.6397636,-15492,-14848,-4556,-8944,-9243,26630
1739651255.6407702,-15288,-14568,-3816,-10091,-6355,27118
1739651255.6992173,-14616,-14640,-2980,-11188,-3686,27616
1739651255.6992173,-13960,-14680,-2232,-12284,-1150,28089
1739651255.7004309,-13424,-15060,-1124,-13224,815,28559
1739651255.7014427,-12668,-15240,-128,-14124,1924,28918
1739651255.7024412,-12460,-15484,1128,-15059,2206,29265
1739651255.7024412,-12464,-16296,1968,-16074,1903,29752
1739651255.7034383,-12408,-16904,2200,-17078,838,30252
1739651255.7044404,-12648,-17840,2016,-17911,-1297,30895
1739651255.7044404,-12340,-18884,2556,-18530,-4109,31440
1739651255.705442,-12292,-20032,3040,-19224,-7300,32110
1739651255.7065153,-12336,-22628,2764,-19643,-10266,32367
1739651255.7074373,-11284,-24788,2264,-19555,-13065,32539
1739651255.708441,-10956,-25992,1276,-18831,-15297,32767
1739651255.7094402,-10012,-25164,2404,-17915,-15976,32767
1739651255.7588274,-9924,-24560,2528,-17022,-16245,32767
1739651255.7588274,-10152,-23232,3384,-15672,-15487,32767
1739651255.759829,-10144,-22400,3504,-14213,-14383,32767
1739651255.7608232,-10112,-21944,3368,-12486,-12702,32767
1739651255.7618842,-9976,-22400,2864,-10842,-10403,32631
1739651255.7628248,-9504,-22432,1968,-9221,-7514,31428
1739651255.7628248,-9384,-21852,1476,-7799,-4234,29927
1739651255.7638226,-9612,-20904,156,-6509,-968,28172
1739651255.764826,-9968,-19496,456,-5715,2567,26209
1739651255.7658255,-10136,-18364,588,-5777,5929,24513
1739651255.7668214,-9840,-17356,-152,-6128,9449,22975
1739651255.7668214,-10492,-16732,28,-6896,13031,21401
1739651255.7678227,-9964,-15892,-60,-8146,16742,19977
1739651255.7688239,-9692,-15228,-532,-9441,20171,19102
1739651255.7699218,-9020,-15008,-708,-10711,23771,18611
1739651255.7708228,-8992,-14720,-1232,-11694,26925,18725
1739651255.819373,-8860,-14196,-1100,-12546,29692,19013
1739651255.8791382,-8728,-13764,-828,-13514,32180,19148
1739651255.8791382,-8376,-13356,-140,-14543,32767,19100
1739651255.8803072,-8024,-13112,136,-15608,32767,18930
1739651255.8803072,-6732,-13308,604,-16407,32767,18740
1739651255.8817291,-6072,-13488,1080,-16850,32767,18636
1739651255.8827379,-5160,-13552,1260,-17099,32767,18463
1739651255.8827379,-4556,-13792,1700,-17068,32767,18213
1739651255.884739,-3648,-13536,2040,-16772,32767,17828
1739651255.884739,-3192,-13772,2516,-16231,32767,17528
1739651255.8858273,-2656,-13540,2724,-15617,32767,17210
1739651255.8867352,-2768,-13380,2960,-15024,32767,16899
1739651255.887739,-2288,-13964,3236,-14361,32767,16590
1739651255.887739,-1948,-14060,3120,-13630,31072,16449
1739651255.88874,-1772,-14240,3232,-12741,27322,16183
1739651255.9387999,-1256,-13932,2648,-11765,23630,15795
1739651255.9387999,-752,-13564,2328,-10650,20084,15037
1739651255.9398098,-152,-13148,1260,-9515,17064,14282
1739651255.9408648,-240,-12960,276,-8425,14615,13359
1739651255.941816,-240,-12880,-320,-7571,12923,12381
1739651255.941816,-340,-13112,-708,-6924,12129,11353
1739651255.9428184,-780,-13472,-1596,-6669,11099,10614
1739651255.9438157,-276,-14104,-2924,-6359,11155,10207
1739651255.9449124,-1312,-13980,-3416,-5929,12224,9738
1739651255.9449124,-1900,-13696,-4424,-6099,13938,9035
1739651255.945816,-2216,-13680,-4700,-6290,16174,8505
1739651255.9468162,-1416,-13996,-5808,-6701,17670,8342
1739651255.9481752,-3124,-12356,-4456,-6660,21790,8180
1739651255.9481752,-3896,-11748,-4512,-7170,25470,7600
1739651255.9494734,-3704,-11972,-6204,-7286,29487,7460
1739651255.9504907,2716,-17524,-15496,12722,539,-19093
1739651255.95148,2080,-17884,-17752,11645,3196,-20779
1739651255.95148,932,-17600,-17380,10635,6193,-22389
1739651255.9524782,1152,-17188,-17296,9424,10114,-23283
1739651255.9535692,756,-17080,-16988,8456,13993,-23734
1739651255.9545705,880,-16880,-15524,7403,17834,-23684
1739651255.956502,1032,-16572,-14228,6375,21350,-23373
1739651255.956502,932,-16260,-12804,5607,24468,-22723
1739651255.9575903,1688,-15576,-11480,4971,26770,-21979
1739651255.958479,2224,-15508,-9708,4430,27900,-21193
1739651255.9595022,2380,-15360,-8352,3941,27689,-20336
1739651255.9595022,2688,-15396,-6952,3622,26193,-19584
1739651255.9605582,2712,-15344,-5372,3427,23916,-19016
1739651255.96148,2800,-15200,-4436,3218,20891,-18931
1739651255.9625797,2196,-15456,-3508,3153,17303,-19108
1739651255.9625797,-740,-18888,212,5259,-6887,-23909
1739651255.9637468,-1484,-20008,272,5816,-9650,-25026
1739651255.9637468,-2180,-21044,180,6450,-11611,-25983
1739651255.9992151,-2952,-21676,128,7086,-12732,-26832
1739651255.9992151,-4164,-23404,48,7747,-13074,-27692
1739651255.9992151,-4864,-24136,160,8408,-12822,-28345
1739651256.000527,-5736,-24636,-8,9302,-11842,-28991
1739651256.001993,-5868,-24328,-172,10232,-9904,-29321
1739651256.001993,-5824,-24472,100,11157,-7148,-29530
1739651256.0032578,-5856,-24564,520,12016,-3853,-29579
1739651256.0042677,-5832,-24564,696,12852,-248,-29491
1739651256.0042677,-5760,-24120,1116,13848,3789,-29279
1739651256.005263,-5440,-23844,1408,14907,8129,-28986
1739651256.0062635,-4960,-23500,2224,16025,12672,-28539
1739651256.0073624,-4288,-23212,2468,17450,17265,-27826
1739651256.0082667,-3628,-23060,3232,18997,21318,-26912
1739651256.0082667,-3064,-23072,4012,20503,24486,-25828
1739651256.010263,-1564,-22992,5296,22042,26968,-24522
1739651256.010263,-1168,-22684,5872,23563,28158,-23174
1739651256.0113814,-416,-22212,6280,25095,27997,-21905
1739651256.0123315,636,-22856,7308,26634,27489,-21067
1739651256.0580738,1008,-22972,8296,28008,26208,-20701
1739651256.059285,1292,-23544,8964,29163,24198,-20940
1739651256.0603325,1476,-24368,9932,30151,21195,-21598
1739651256.0603325,1364,-25860,10468,31114,17513,-22683
1739651256.0618544,1400,-28816,11552,32130,13400,-23960
1739651256.0618544,964,-32400,12044,32767,8497,-25427
1739651256.063862,788,-32768,11720,32767,3390,-27127
1739651256.063862,1560,-32768,11472,32767,-953,-29120
1739651256.0648623,2400,-32768,11140,32767,-4146,-31359
1739651256.0658624,2520,-32768,10664,32767,-6289,-32768
1739651256.0658624,1632,-32768,10412,32767,-7684,-32768
1739651256.0668616,804,-32768,10496,32767,-8497,-32768
1739651256.0678625,916,-32768,10240,32767,-7739,-32768
1739651256.0678625,436,-32768,9072,32767,-5731,-32768
1739651256.070212,-104,-32768,8768,32767,-3376,-32768
1739651256.070212,-584,-32768,8564,32767,-683,-32768
1739651256.0713036,-824,-32768,8408,32767,2182,-32768
1739651256.0722108,-576,-32768,8044,32767,5068,-32768
1739651256.0722108,60,-32768,7748,32767,8045,-32768
1739651256.0732114,1412,-32768,7420,32767,11072,-32768
1739651256.0743058,3180,-32768,7132,32767,14460,-32768
1739651256.1192255,4352,-32768,6912,32767,17897,-32768
1739651256.1192255,5308,-32768,6288,32767,20966,-32768
1739651256.120217,6492,-32768,6740,32767,23520,-32768
1739651256.1212153,7708,-32768,6420,32767,25526,-32768
1739651256.1212153,8068,-32768,6272,32767,26837,-32768
1739651256.1222143,8352,-32768,6232,32767,27282,-32768
1739651256.1232574,8396,-32768,6380,32767,27173,-32768
1739651256.1243305,8172,-32768,6780,32767,26552,-32768
1739651256.1243305,8560,-32768,6692,32767,25670,-32768
1739651256.1782267,8932,-32768,6472,32767,25214,-32768
1739651256.1792247,8856,-32768,5688,32767,24168,-32768
1739651256.1802242,8488,-32768,4788,32767,23404,-32768
1739651256.1802242,8312,-32768,4884,32767,22870,-32768
1739651256.181225,7748,-32768,4960,32767,22694,-32768
1739651256.182225,7148,-32768,4948,32767,22639,-32768
1739651256.1832256,7364,-32768,4420,32767,22491,-32768
1739651256.184225,8488,-32768,3124,32767,22748,-32768
1739651256.1852646,9556,-32768,1300,32767,23496,-32768
1739651256.1852646,10556,-32768,-72,32767,24429,-32768
1739651256.1862805,10472,-32768,-740,32767,25177,-32768
1739651256.187318,10264,-32768,-904,32767,25553,-32768
1739651256.1882253,10548,-32768,-780,32767,26021,-32768
1739651256.1882253,10800,-32768,-1264,32767,26690,-32768
1739651256.189299,10668,-32768,-1692,32767,27259,-32768
1739651256.1903071,10904,-32768,-2028,32767,27671,-32768
1739651256.191414,11576,-32768,-2444,32767,28143,-32768
1739651256.191414,12288,-32768,-2636,32767,28765,-32768
1739651256.1924224,13556,-32768,-1572,32767,29452,-32768
1739651256.1934192,14840,-32768,-3076,32767,30700,-32768
1739651256.194419,14092,-32768,-2924,32767,31810,-32768
1739651256.1955135,14124,-32768,-2124,32767,32767,-32768
1739651256.1955135,13888,-32768,-1652,32767,32767,-32768
1739651256.1974206,14488,-32768,-364,32767,32767,-32768
1739651256.1974206,16768,-32768,68,30407,32767,-32768
1739651256.198419,19524,-32768,376,27960,31659,-32768
1739651256.1994216,22372,-32768,400,25318,29953,-32768
1739651256.2004182,24620,-32768,164,22918,28562,-32768
1739651256.2004182,26680,-32768,496,20381,27227,-32768
1739651256.201419,27692,-32768,536,17646,25639,-32768
1739651256.2025442,28952,-32768,52,15104,25260,-32768
1739651256.2034712,28912,-32768,-1096,12528,24852,-32768
1739651256.2034712,30832,-32768,-1772,9849,25004,-32768
1739651256.20442,31888,-32768,-2772,7517,27112,-32768
1739651256.2059903,32216,-32768,-3788,4869,29186,-32768
1739651256.2391207,32176,-32768,-4276,2185,31842,-32768
1739651256.2391207,31820,-32768,-4756,-299,32767,-32768
1739651256.2402256,30840,-32768,-3704,-3118,32767,-32768
1739651256.2402256,29896,-32768,-4492,-5666,32767,-32768
1739651256.2413254,28968,-32768,-5504,-7627,32767,-32768
1739651256.242324,28340,-32768,-6300,-9084,32767,-32768
1739651256.2434356,27424,-32768,-5632,-10667,32767,-32768
1739651256.298812,26144,-32768,-7520,-11643,32767,-32768
1739651256.298812,24952,-32768,-6408,-13063,32767,-32768
1739651256.2998178,24416,-32768,-6168,-14692,32767,-32768
1739651256.3011022,23068,-32768,-4452,-16454,32767,-32768
1739651256.3011022,23860,-32768,-9168,-17123,32767,-30095
1739651256.3021078,21924,-32768,-10024,-17464,32767,-28445
1739651256.3035347,22100,-32768,-9828,-18905,32767,-26289
1739651256.3035347,20068,-32768,-11684,-19417,32767,-24767
1739651256.3055427,17824,-32768,-7784,-21348,32767,-23656
1739651256.3055427,21364,-32768,-12528,-22779,32767,-20777
1739651256.3065436,21196,-32768,-12692,-24535,32500,-17443
1739651256.3075893,20408,-32768,-17160,-24773,29818,-13791
1739651256.3086512,19840,-32768,-18684,-24598,26305,-11102
1739651256.3086512,20728,-32768,-16324,-25067,23511,-7133
1739651256.309657,18732,-32768,-21160,-24419,16432,-4266
1739651256.310797,21576,-32768,-20960,-23620,11268,167
1739651256.311664,27768,-32768,-22564,-24732,11169,4878
1739651256.3586342,28144,-32768,-21680,-27401,11471,6380
1739651256.3606377,28080,-32768,-21988,-30217,11449,6368
1739651256.3618088,28600,-32768,-23156,-32565,10802,6259
1739651256.3628137,32767,-32768,-26884,-32768,9237,7959
1739651256.4181657,32767,-32768,-28968,-32768,7052,10611
1739651256.4192135,32767,-32768,-29636,-32768,4947,13239
1739651256.4202182,32767,-32768,-29812,-32768,3939,14830
1739651256.4202182,32767,-32768,-30904,-32768,3397,15727
1739651256.4212217,32767,-32768,-31908,-32768,2829,16156
1739651256.4222198,32767,-32768,-32512,-32768,2841,16445
1739651256.4232213,32767,-32768,-32768,-32768,3491,16785
1739651256.4242198,32767,-32768,-32768,-32768,4278,17500
1739651256.4242198,32767,-32768,-32768,-32768,4590,18674
1739651256.4252188,32767,-32768,-32768,-32768,3958,20044
1739651256.4263816,32767,-32768,-32768,-32768,2310,21475
1739651256.427387,32767,-32768,-32768,-32768,-23,22918
1739651256.427387,32767,-32768,-32768,-32768,-3454,24533
1739651256.4288092,32767,-32768,-32768,-32768,-6905,26316
1739651256.429814,32767,-32008,-32316,-32768,-10431,28215
1739651256.429814,32767,-30196,-31796,-32768,-13852,30327
1739651256.430969,32480,-28680,-30916,-32768,-17357,32513
1739651256.4322803,32232,-26944,-29200,-32768,-20625,32767
1739651256.4332874,32767,-24660,-27192,-32768,-23005,32767
1739651256.4332874,32767,-22776,-25396,-32768,-25016,32767
1739651256.4342856,32767,-21004,-24056,-32768,-26913,32767
1739651256.435285,32767,-19952,-21576,-32768,-29086,32767
1739651256.436315,32767,-18108,-18836,-32768,-31163,32767
1739651256.4784691,32767,-15620,-17304,-32768,-32768,32767
1739651256.4794703,32767,-12220,-16592,-32768,-32768,32767
1739651256.5386167,32767,-8456,-15212,-32768,-32768,32767
1739651256.5386167,32767,-3960,-14356,-32768,-32768,32767
1739651256.5405335,32767,912,-13108,-32768,-32768,32767
1739651256.5405335,32767,5276,-11996,-32768,-32768,32767
1739651256.541541,32767,9888,-11920,-32768,-32768,32767
1739651256.5425851,11164,26184,11552,-19599,-32768,15186
1739651256.5436819,9416,24968,11652,-18274,-32768,14697
1739651256.5986185,8216,23472,12320,-17002,-32768,14083
1739651256.6590607,7428,22244,12644,-15844,-32768,13546
1739651256.6602163,7332,20948,13244,-14585,-32768,12937
1739651256.6602163,6580,19848,14180,-12972,-32768,12309
1739651256.6615055,6200,19108,14996,-11058,-32768,11518
1739651256.6615055,5900,19116,15464,-8973,-32768,10578
1739651256.6625144,5448,19572,15596,-6892,-32768,9516
1739651256.6635664,4596,20380,15756,-4795,-32768,8420
1739651256.6635664,3312,20732,16248,-2844,-32768,7473
1739651256.6645129,2212,20684,16344,-1136,-32768,6441
1739651256.66553,576,20192,16244,276,-32768,5648
1739651256.6665757,-548,19528,17020,1421,-32768,4832
1739651256.6675415,-1440,18740,17100,2407,-32768,3977
1739651256.6675415,-1848,18064,17404,3163,-32768,3078
1739651256.6687286,-2168,16984,17268,3882,-32768,2149
1739651256.669794,-2128,15956,17224,4603,-32768,1087
1739651256.669794,-2564,15028,16644,5187,-32768,84
1739651256.6707356,-2848,14008,16288,5506,-32768,-910
1739651256.6718178,-3084,12908,16180,5806,-32768,-1890
1739651256.6727364,-3180,12092,16108,6126,-32768,-2587
1739651256.673815,-3828,11212,15940,6200,-32768,-3219
1739651256.673815,-4112,10572,15896,6133,-32768,-3680
1739651256.67474,-4216,9888,15380,5945,-32768,-4032
1739651256.6757348,-11856,-15832,1492,-7474,-3130,5349
1739651256.6768265,-12364,-17132,1220,-7210,-4004,6924
1739651256.6777728,-12856,-18020,3624,-6983,-2917,8750
1739651256.6777728,-14000,-17664,10820,-9204,-1435,10610
1739651256.679275,-14532,-18772,1632,-8865,-4284,13029
1739651256.6804411,-13900,-19688,-2220,-6296,-7047,15819
1739651256.7186835,-14744,-19752,-2252,-3801,-9219,18344
1739651256.7196803,-14588,-20264,344,-1873,-10474,20797
1739651256.7196803,-13824,-20844,2460,-616,-10737,23266
1739651256.7207177,-12712,-21276,3816,205,-10497,25741
1739651256.721683,-12456,-21444,4020,1078,-10123,28241
1739651256.7227728,-11980,-21984,3900,2055,-9397,30629
1739651256.7227728,-11624,-22556,3980,3138,-8860,32767
1739651256.7246776,-10960,-22940,3812,4285,-8063,32767
1739651256.7246776,-10876,-23224,4200,5345,-7321,32767
1739651256.7257674,-10364,-23996,4300,6617,-6461,32767
1739651256.7257674,-10148,-24628,4776,7748,-5925,32767
1739651256.7277777,-10260,-25780,5412,8413,-5540,32767
1739651256.7277777,-10284,-26732,6456,8798,-4956,32767
1739651256.7288625,-10704,-28196,7180,8752,-4992,32767
1739651256.7298672,-10612,-29732,6876,8472,-5294,32767
1739651256.7308688,-10440,-31608,5832,8226,-5724,32767
1739651256.7308688,-10912,-32768,5584,7929,-6736,32767
1739651256.7786791,-11552,-32768,4932,7237,-8168,32767
1739651256.779598,-12120,-32768,5400,5831,-9482,32767
1739651256.779598,-12708,-32768,3944,4196,-11367,32767
1739651256.7806005,-12804,-32768,896,3150,-13889,32767
1739651256.7815988,-14012,-32768,-2348,2582,-16713,32767
1739651256.782638,-14408,-32768,-3480,2084,-18436,32767
1739651256.7836442,-14220,-32768,-3904,1583,-18522,32767
1739651256.7836442,-13432,-32768,-4044,1141,-17872,32767
1739651256.7851105,-12112,-32768,-3864,571,-16030,32767
1739651256.7861161,-10568,-32768,-3288,-428,-12778,32767
1739651256.7861161,-9144,-32768,-2512,-1697,-8278,32767
1739651256.7871904,-7836,-32768,-1728,-3508,-2702,32767
1739651256.7881157,-6692,-32768,-976,-5615,2905,32767
1739651256.7881157,-4816,-32768,700,-7825,9245,32767
1739651256.7901666,-3700,-32196,1940,-10353,15518,32767
1739651256.7901666,-1924,-30624,2876,-12688,21324,32767
1739651256.7912445,-904,-28908,3592,-14692,25932,32767
1739651256.7921674,2516,-27456,3636,-16245,30038,32767
1739651256.7932203,3704,-26840,3636,-17097,32767,32767
1739651256.7932203,4980,-25260,3788,-17424,32767,32767
1739651256.7951722,5444,-25496,4276,-17455,32767,32767
1739651256.8388,6752,-25504,3704,-17159,32767,32767
1739651256.8388,5908,-24756,3812,-16625,32767,32767
1739651256.8397954,5792,-25504,3352,-15788,32767,32767
1739651256.8408635,5260,-26188,2932,-14987,32767,32767
1739651256.8421764,4672,-26732,2684,-13923,32153,32767
1739651256.8421764,4076,-27060,2524,-13038,31019,32767
1739651256.8432784,3504,-26984,2428,-12201,30134,30953
1739651256.8442163,2940,-27024,1588,-11546,29286,29422
1739651256.8442163,2304,-26976,956,-10870,28177,28349
1739651256.8451693,1296,-26828,-84,-10348,26850,27563
1739651256.8461807,268,-26792,-820,-10057,25638,26947
1739651256.8472915,-664,-26608,-1844,-9975,24498,26440
1739651256.848186,-1376,-26364,-2240,-10217,23525,26202
1739651256.848186,-1616,-26332,-2872,-10748,23044,26130
1739651256.849303,-1768,-26556,-3204,-11467,23149,26251
1739651256.8503094,-2024,-26760,-4036,-12208,23695,26452
1739651256.8513904,-2196,-26864,-4316,-13063,24527,26617
1739651256.8523078,-1588,-27512,-4804,-13651,26429,26817
1739651256.8523078,-2052,-27732,-5656,-14392,27624,26883
1739651256.8533094,-1284,-28388,-6248,-14726,29956,26986
1739651256.8994017,-808,-28608,-6912,-15077,32091,27034
1739651256.8994017,-328,-28936,-7660,-15304,32767,27083
1739651256.8994017,232,-28840,-7504,-15425,32767,27042
1739651256.9004114,772,-28444,-7800,-15563,32767,26907
1739651256.901786,1452,-27876,-7664,-15548,32767,26937
1739651256.9027936,2248,-27596,-8092,-15617,32767,27054
1739651256.9027936,2980,-27080,-8172,-15722,32767,27353
1739651256.904253,3708,-26684,-8424,-15648,32767,27810
1739651256.904253,4568,-26184,-8648,-15276,32767,28460
1739651256.905258,5608,-25280,-9024,-14794,32767,29308
1739651256.9062576,6952,-24080,-8796,-14233,32767,30245
1739651256.9073617,8472,-23164,-8496,-13617,32767,31034
1739651256.908274,8832,-22196,-7784,-13053,32767,31754
1739651256.908274,9752,-21848,-6528,-13061,32767,31991
1739651256.909258,10856,-21760,-5876,-13027,32767,32400
1739651256.9102585,11780,-20868,-4436,-12733,32767,32767
1739651256.9113743,12952,-20076,-3732,-12242,32767,32767
1739651256.912347,14656,-19796,-2392,-11844,32767,32690
1739651256.913258,14668,-18860,-1360,-11700,32767,31835
1739651256.9142606,15196,-18040,-300,-11438,32767,30310
1739651256.959106,16432,-17648,284,-10890,32767,28588
1739651256.959106,18268,-17440,584,-10240,32767,26527
1739651256.9600906,19336,-17040,1524,-9429,32767,24141
1739651256.9610968,20112,-17092,2056,-8499,32767,21215
1739651256.9610968,20636,-16748,2396,-7541,32767,17776
1739651256.9620905,20836,-17264,2692,-6372,32767,13771
1739651256.963095,20784,-16996,2224,-4951,32767,9342
1739651256.9640958,20816,-17620,1624,-3325,26837,4601
1739651256.9640958,20544,-18252,912,-1613,20567,-182
1739651256.965575,19772,-18956,-28,64,14792,-4834
1739651256.9660814,18428,-19716,-444,1710,9992,-9519
1739651256.9660814,17008,-20284,-592,3143,6487,-13658
1739651256.9674857,15328,-20472,-964,4495,3511,-17421
1739651256.9688008,13532,-20360,-1032,5730,1400,-20717
1739651256.9699113,11928,-20900,-1328,6594,-470,-23672
1739651257.018694,10692,-22076,-1080,7489,-1335,-25958
1739651257.018694,9436,-22864,-1040,8215,-2389,-27862
1739651257.0196905,8204,-23308,-972,9022,-2888,-29358
1739651257.0196905,7440,-23564,-800,9784,-3536,-30447
1739651257.0211513,7136,-23664,-796,10661,-3778,-31039
1739651257.0220444,6648,-23472,-1136,11401,-4232,-31281
1739651257.023065,6732,-23564,-1344,12195,-3635,-31276
1739651257.0240688,6604,-23552,-912,12915,-2179,-30965
1739651257.025068,6176,-23492,-800,13613,-344,-30537
1739651257.025068,6020,-23340,-528,14352,1498,-30160
1739651257.0260575,5572,-23260,-116,15057,2746,-29724
1739651257.0270805,5128,-22508,660,15556,3275,-29798
1739651257.0280812,4824,-22248,1464,15833,3571,-30232
1739651257.0280812,4632,-22264,2228,15984,3769,-31024
1739651257.0301476,4412,-22680,2504,16452,3658,-32109
1739651257.0301476,4720,-23276,2708,16852,3298,-32768
1739651257.0310955,4484,-23852,2880,17511,2757,-32768
1739651257.0310955,4144,-25200,3172,18225,1949,-32768
1739651257.0330186,3424,-26760,3576,19058,745,-32768
1739651257.0330186,2592,-29372,4164,20077,-845,-32768
1739651257.0344236,1932,-32292,4240,21308,-2826,-32768
1739651257.035461,1716,-32768,4288,23089,-5156,-32768
1739651257.035461,2168,-32768,4308,25152,-7545,-32768
1739651257.036434,3152,-32768,4332,27263,-8466,-32768
1739651257.0374336,3568,-32416,3764,29355,-8541,-32768
1739651257.0384293,3044,-32604,3596,30916,-7124,-32768
1739651257.0792143,1836,-32768,3784,32452,-5536,-32768
1739651257.0792143,1508,-32768,3600,32767,-2991,-32768
1739651257.0802119,1028,-32768,3468,32767,861,-32768
1739651257.0802119,52,-32768,3268,32767,4750,-32768
1739651257.0812056,-404,-32768,2308,32767,9495,-32768
1739651257.0822082,1100,-32768,2380,32767,14642,-32768
1739651257.0832078,1364,-32768,2496,32767,20083,-32768
1739651257.0842917,560,-32768,2640,32767,24658,-32768
1739651257.0842917,-20,-32768,3436,32767,28274,-32768
1739651257.0853233,52,-32768,4460,32767,30964,-32768
1739651257.0864465,1128,-32768,5368,32767,32626,-32768
1739651257.0873296,1752,-32768,5628,32767,32767,-32768
1739651257.0873296,2540,-32768,6208,32767,31751,-32768
1739651257.0883293,3228,-32768,6476,32767,29938,-32768
1739651257.0893538,3144,-32768,7252,32767,27582,-32768
1739651257.090347,2988,-32768,8384,32767,24946,-32768
1739651257.090347,2344,-32768,9764,32767,21980,-32768
1739651257.0923283,2240,-32768,10144,32767,18820,-32768
1739651257.138689,2528,-32768,10192,32767,16263,-32768
1739651257.1396818,2588,-32768,9904,32767,13896,-32768
1739651257.1986098,2536,-32768,9476,32767,12483,-32768
1739651257.199618,1968,-32768,9016,32767,11937,-32768
1739651257.199618,1856,-32768,8476,32767,12419,-32768
1739651257.200609,1240,-32768,8076,32767,13711,-32768
1739651257.2016058,352,-32768,7404,32767,15301,-32768
1739651257.20261,692,-32768,6372,32767,17877,-32768
1739651257.20261,608,-32768,5020,32767,21497,-32768
1739651257.2036078,740,-32768,4196,32767,25268,-32768
1739651257.204617,2084,-32768,3380,32767,30203,-32768
1739651257.2057436,3064,-32768,1940,32767,32767,-32768
1739651257.2066245,3296,-32768,1292,32767,32767,-32768
1739651257.2066245,3352,-32768,936,32767,32767,-32768
1739651257.207623,3292,-32768,824,32767,32767,-32768
1739651257.207623,3012,-32768,1016,32767,32767,-32768
1739651257.209045,3628,-32768,1128,32767,32767,-32768
1739651257.210049,4932,-32768,1240,32767,32767,-32768
1739651257.2110722,6284,-32768,1256,32767,32767,-32768
1739651257.2120495,7984,-32768,820,32767,32767,-32768
1739651257.2120495,9512,-32768,300,32767,32767,-32768
1739651257.2130485,10936,-32768,-324,32767,32767,-31881
1739651257.2140803,12116,-32768,-588,32767,32767,-28382
1739651257.215219,13368,-32768,-712,32767,32767,-25182
1739651257.215219,14260,-32768,-396,32767,32767,-22310
1739651257.2162225,15096,-32768,-236,32767,32767,-19700
1739651257.217223,16456,-32768,208,32767,32767,-17466
1739651257.2182493,17700,-32768,488,32767,32767,-15401
1739651257.219224,18628,-32768,384,32767,32767,-13547
1739651257.219224,19428,-32768,204,32767,32767,-12022
1739651257.2202232,20348,-32768,396,32767,32767,-10348
1739651257.2212517,21980,-32768,736,32767,32767,-8749
1739651257.2222567,24192,-32768,1248,32767,32767,-7156
1739651257.2232275,32767,-32768,-3700,32767,32767,-14472
1739651257.2232275,32767,-32768,-4420,32767,32767,-18327
1739651257.2242231,32767,-32768,-5560,32767,32767,-22288
1739651257.2252235,32767,-32768,-7280,32767,32767,-25853
1739651257.2262535,32767,-32768,-8664,32767,32767,-29459
1739651257.2596538,32767,-32768,-10088,32767,32767,-32698
1739651257.2596538,32767,-32768,-10912,32767,32767,-32768
1739651257.2596538,32767,-32768,-11596,32767,32767,-32768
1739651257.2606344,32767,-32768,-12564,32767,32767,-32768
1739651257.261637,32767,-32768,-13488,31001,32767,-32768
1739651257.2626336,32767,-32768,-15056,27836,32767,-32768
1739651257.2636335,32767,-32768,-15732,23889,32767,-32768
1739651257.2646391,32767,-32768,-16712,19320,32767,-32768
1739651257.2646391,32767,-32768,-18264,15929,32767,-32768
1739651257.2656357,32767,-32768,-20128,12299,32767,-32768
1739651257.2666335,31488,-32768,-20104,7856,32767,-32768
1739651257.267635,29672,-32768,-21912,3796,32767,-32768
1739651257.267635,26376,-32768,-24040,560,32767,-32768
1739651257.2696304,25220,-32768,-24172,-2533,32767,-31801
1739651257.3190732,24100,-32768,-23356,-5678,32767,-29784
1739651257.3200696,23024,-32768,-22816,-8942,32767,-27422
1739651257.3200696,23256,-32768,-21412,-12707,32767,-24907
1739651257.321077,22300,-32768,-22076,-16136,32767,-22306
1739651257.3220718,23040,-32768,-21680,-19216,32767,-19760
1739651257.3230703,23460,-32768,-21096,-21879,32767,-17250
1739651257.3230703,23588,-32768,-19956,-24455,32767,-15048
1739651257.3240674,23668,-32768,-17580,-27305,31856,-13236
1739651257.32531,22880,-32768,-9856,-31392,26878,-11300
1739651257.325816,29188,-32768,-4952,-32768,23430,-10137
1739651257.3268301,26288,-32768,-25336,-32768,23333,-8253
1739651257.3278315,23184,-32768,12,-32768,13647,-5966
1739651257.328745,28024,-32768,-11868,-32768,15852,-4488
1739651257.3292494,31004,-32768,-12008,-32768,11779,-2475
1739651257.3302152,32767,-32768,-18448,-32768,8763,-575
1739651257.3307738,31652,-32768,-17652,-32768,5169,1789
1739651257.3317785,32767,-32768,-16092,-32768,3427,4052
1739651257.3317785,32767,-32768,-16956,-32768,3698,5879
1739651257.3327835,32767,-32768,-12576,-32768,4336,7912
1739651257.3338268,32767,-32240,-19220,-32768,3474,9981
1739651257.3786922,32767,-30316,-21956,-32768,4775,11275
1739651257.3796299,32767,-30960,-30316,-32768,3263,12015
1739651257.3796299,32767,-30604,-28700,-32768,3882,12351
1739651257.3806646,32767,-29156,-27156,-32768,2264,12971
1739651257.381623,32767,-27344,-25348,-32768,871,13956
1739651257.3826263,32592,-25376,-26816,-32768,-1467,14946
1739651257.3836231,32344,-23516,-28896,-32768,-3525,16173
1739651257.3836231,32476,-21988,-27120,-32768,-3882,17572
1739651257.3846235,30664,-21140,-29216,-32768,-6151,19135
1739651257.385692,30708,-21044,-29552,-32768,-7746,20692
1739651257.3867116,29488,-19832,-29376,-32768,-9580,22562
1739651257.3876293,28252,-18480,-30320,-32768,-11710,24088
1739651257.3876293,27340,-16732,-30844,-32768,-14068,25342
1739651257.3886235,26056,-16260,-31404,-32768,-16893,26217
1739651257.3896227,24456,-15880,-31400,-32768,-20759,26409
1739651257.390663,22752,-16884,-29476,-32768,-25185,25268
1739651257.391668,18280,-18900,-26860,-32768,-29004,21505
1739651257.391668,23328,-6952,-29564,-32768,-32768,25096
1739651257.3926673,20820,-4232,-30268,-32768,-32768,23188
1739651257.3936682,23980,-4900,-28796,-32768,-32768,20616
1739651257.394696,29060,-2320,-28448,-32768,-32768,22301
1739651257.3956974,32440,-1116,-26652,-32768,-32768,23009
1739651257.396698,32767,1372,-23900,-32768,-32768,25045
1739651257.4394648,32767,2972,-21920,-32768,-32768,26775
1739651257.4394648,32767,5528,-20552,-32768,-32768,28317
1739651257.440466,32767,7264,-20092,-32768,-32768,29120
1739651257.4993138,32767,6256,-19564,-32768,-32768,28818
1739651257.4993138,32376,5748,-20392,-32768,-32768,28156
1739651257.500307,31004,5240,-20688,-32768,-32768,27215
1739651257.501312,31340,5792,-20644,-31423,-32768,26676
1739651257.502311,31188,6124,-19692,-28791,-32768,26013
1739651257.502311,30728,7324,-17868,-26564,-32768,25590
1739651257.5033095,30116,8776,-16028,-24514,-32768,25237
1739651257.5043473,28728,10184,-14248,-22871,-32768,24940
1739651257.5053043,27128,11568,-12732,-21510,-32768,24508
1739651257.506307,25640,12292,-11516,-20338,-32768,23728
1739651257.506307,24276,13456,-10824,-19333,-32768,22917
1739651257.5073047,23384,15136,-10244,-18207,-32768,22034
1739651257.5083044,22900,16676,-9564,-17352,-32768,20594
1739651257.5093033,22456,18420,-8900,-17084,-32768,19216
1739651257.5093033,21812,19804,-8056,-16953,-32768,17716
1739651257.5103035,20900,20484,-7124,-16724,-32768,16153
1739651257.511332,19348,21568,-6112,-16360,-32768,14547
1739651257.5123267,18240,22232,-4728,-15847,-32768,12872
1739651257.5133054,17096,22788,-2936,-15024,-32768,11241
1739651257.5133054,16040,23256,-1248,-13941,-32768,9577
1739651257.5143034,15224,23272,560,-12862,-32768,7926
1739651257.5153058,14764,22844,2160,-11721,-32768,6402
1739651257.5163193,14480,22460,4068,-10497,-32768,5054
1739651257.5163193,13876,21712,5932,-9214,-32768,3818
1739651257.5173032,12956,21136,7840,-8118,-32768,2705
1739651257.5183036,11844,20420,9320,-7043,-32768,1718
1739651257.5193295,10424,19784,10516,-5686,-32768,670
1739651257.520304,9504,19052,11064,-4412,-32768,-72
1739651257.520304,8096,18388,11420,-3261,-32768,-796
1739651257.5213032,7000,17336,11788,-2178,-32768,-1356
1739651257.5223033,5616,16488,12436,-1275,-32768,-1777
1739651257.5233326,1308,12532,12872,1539,-32768,-3065
1739651257.5243032,1260,11644,12252,2562,-32768,-3253
1739651257.5243032,1576,10792,12096,3548,-32768,-3142
1739651257.5253031,1084,10116,12572,4139,-32768,-2885
1739651257.526303,916,9148,12616,4720,-32768,-2738
1739651257.558891,716,7932,12692,5288,-32768,-2663
1739651257.558891,616,6624,12824,5934,-32768,-2623
1739651257.5598755,900,5616,13152,6125,-32768,-2261
1739651257.5608773,1636,2776,14036,4412,-32768,429
1739651257.5618763,-2220,1456,11336,4955,-32768,1884
1739651257.5618763,-2684,3496,11376,6092,-32768,641
1739651257.5628827,-792,4184,11928,6646,-32768,-664
1739651257.563905,1388,3088,12312,7171,-32768,-1661
1739651257.5648742,1932,1396,12968,7918,-32768,-2503
1739651257.5648742,1196,260,13584,8238,-32768,-3101
1739651257.565873,-32,-544,14112,8337,-32768,-3717
1739651257.5669339,-1296,-1144,14308,8185,-32768,-4311
1739651257.6192262,-1576,-1936,14544,7872,-32768,-4904
1739651257.6192262,-1916,-2628,14032,7562,-32768,-5483
1739651257.6192262,-2156,-3452,13284,7243,-32768,-5944
1739651257.6206267,-2272,-4012,12904,6915,-32768,-6283
1739651257.6216502,-2760,-4604,12616,6544,-32768,-6515
1739651257.6227312,-3332,-5052,12480,6022,-32768,-6606
1739651257.6227312,-3880,-5324,12256,5338,-32768,-6578
1739651257.623727,-4092,-6192,11632,4591,-32768,-6579
1739651257.6257396,-4564,-6144,10952,4005,-32768,-6394
1739651257.6267543,-4280,-6208,10960,3215,-32768,-5894
1739651257.6267543,-4692,-6460,10260,2427,-32768,-5258
1739651257.6278489,-4912,-6544,10108,1519,-32768,-4588
1739651257.6288023,-5520,-6680,9864,575,-32768,-3991
1739651257.6298764,-6228,-6956,9416,-377,-32768,-3407
1739651257.6298764,-6320,-6780,8892,-1287,-32768,-2777
1739651257.6308832,-6192,-6724,8240,-2185,-32768,-2016
1739651257.6318836,-6348,-6512,7976,-2998,-32768,-1197
1739651257.632886,-6396,-6324,7324,-3772,-32550,-361
1739651257.6339264,-6420,-6344,6852,-4481,-31773,500
1739651257.6339264,-6560,-6164,6000,-5047,-30942,1389
1739651257.6349359,-6672,-6388,5536,-5458,-30197,2353
1739651257.63592,-6448,-6820,4616,-5473,-29542,3460
1739651257.636888,-7060,-7208,4780,-5697,-29024,4534
1739651257.6378868,-7156,-8112,4220,-5455,-28318,5611
1739651257.6378868,-6552,-7884,3120,-4524,-28043,6738
1739651257.6788762,-5352,-8248,628,-3314,-28117,8730
1739651257.6788762,-6484,-7972,1160,-2127,-27395,10183
1739651257.6798718,-5324,-9144,-1960,32,-27633,11990
1739651257.6808727,-8292,-7104,3008,317,-26495,12656
1739651257.6808727,-9520,-6756,5168,-7,-26790,13515
1739651257.6818693,-10808,-6192,7392,-1382,-26956,14002
1739651257.6828713,-9676,-7204,5404,-2374,-28204,15309
1739651257.6839032,-6968,-9052,228,-1241,-28315,17201
1739651257.6848707,-9600,-8744,3388,-1633,-28607,18438
1739651257.6848707,-9620,-9164,3216,-1542,-28982,19700
1739651257.6858692,-11820,-8188,9684,-4006,-28258,20115
1739651257.6868713,-11744,-8480,10236,-6719,-28452,20756
1739651257.687871,-10364,-9372,8160,-8873,-28402,21685
1739651257.6888704,-8964,-10228,4828,-9988,-28454,22817
1739651257.6888704,-7300,-11536,1088,-9573,-27766,24242
1739651257.6898718,-7284,-12632,472,-9083,-27319,25642
1739651257.6908698,-6548,-12948,-620,-7947,-26227,27084
1739651257.6919003,-7628,-13332,372,-7329,-25381,28051
1739651257.7382255,-7676,-13476,1156,-7172,-24515,28736
1739651257.7391787,-7668,-13588,1852,-7073,-23578,29484
1739651257.7401805,-7960,-13856,1972,-7015,-22788,29609
1739651257.7412214,-7704,-13168,1232,-6769,-22423,30253
1739651257.7412214,-7128,-12956,728,-6572,-21955,30987
1739651257.7421823,-7436,-13032,552,-6397,-21529,31493
1739651257.7433145,-7072,-12888,156,-5884,-21227,32175
1739651257.7433145,-7312,-12540,736,-5588,-21097,32729
1739651257.744311,-7024,-11516,1092,-5740,-20808,32767
1739651257.74531,-7168,-10944,1072,-6022,-20285,32767
1739651257.7463603,-7160,-10544,1048,-6310,-19819,32767
1739651257.7473495,-7492,-10356,1296,-6866,-19284,32767
1739651257.7473495,-7000,-10440,1028,-7275,-18282,32767
1739651257.748311,-7004,-10480,1456,-8015,-17015,32767
1739651257.7496798,-7032,-11016,1344,-8620,-15680,32767
1739651257.7506886,-7612,-11240,1592,-9251,-14317,32767
1739651257.7506886,-7508,-11416,1668,-9994,-13106,32767
1739651257.7517855,-7468,-11352,2360,-10818,-11901,32767
1739651257.7529323,-7332,-11012,2272,-11608,-10718,32767
1739651257.753791,-7536,-10884,2800,-12916,-9618,32767
1739651257.7547903,-7684,-10972,2208,-13738,-8578,32767
1739651257.7989826,-7956,-10640,2024,-14689,-8060,32767
1739651257.7989826,-7432,-10836,1576,-15564,-7604,32767
1739651257.800173,-7336,-10836,644,-16152,-7597,32767
1739651257.801181,-7300,-11304,536,-16485,-7094,32767
1739651257.801181,-7800,-11244,856,-17235,-7070,32767
1739651257.8021796,-7612,-10872,948,-17860,-7458,32767
1739651257.8032074,-7472,-10748,656,-18152,-7870,32767
1739651257.8041792,-6864,-10616,1256,-18855,-7888,32767
1739651257.80518,-6332,-10684,1552,-19721,-7930,32767
1739651257.80518,-5048,-11072,1892,-20468,-7252,32767
1739651257.8061793,-3916,-11580,2160,-21267,-6278,32767
1739651257.8072245,-2904,-12204,2216,-22004,-5035,32767
1739651257.8081782,-1776,-13016,2152,-22650,-3275,32767
1739651257.8091962,-680,-13768,2440,-23231,-987,32767
1739651257.8101804,312,-14544,2528,-23635,1450,32767
1739651257.8101804,1296,-15764,2316,-23678,3758,32767
1739651257.8111823,2276,-15516,3096,-23699,6043,32767
1739651257.8122177,3896,-16288,2820,-23531,8381,32767
1739651257.8122177,5124,-16408,2788,-23095,11053,32767
1739651257.8131788,6060,-16876,3188,-22699,12734,32767
1739651257.8578944,7060,-17664,4260,-22267,14107,32767
1739651257.8592217,8608,-18380,5320,-22034,15193,32767
1739651257.860227,8792,-18496,5272,-21858,16106,32767
1739651257.860227,9376,-18776,4684,-21350,16976,32767
1739651257.8622317,10116,-19648,4176,-20626,17643,32767
1739651257.9194634,11652,-20688,4340,-19854,18154,32767
1739651257.9194634,12568,-21216,3964,-18900,18501,32767
1739651257.9204636,13448,-21672,4540,-18052,18270,32767
1739651257.921473,13636,-21996,4800,-17198,17997,32767
1739651257.921473,13184,-22264,3916,-16076,17882,32767
1739651257.922519,12860,-22848,2844,-14702,17077,32767
1739651257.9234629,13160,-23660,1220,-12885,16251,32767
1739651257.924478,13824,-23844,376,-10827,15368,32767
1739651257.924478,14456,-23792,184,-8855,14267,32767
1739651257.9254594,15348,-23860,-408,-7042,13552,32767
1739651257.9264944,16784,-24244,-844,-5379,13061,32767
1739651257.9276109,17952,-24576,-1560,-3981,13167,32767
1739651257.9276109,18572,-24624,-2496,-2865,14129,32767
1739651257.928499,18552,-24660,-3348,-2092,15976,32767
1739651257.9295003,18748,-24376,-3716,-1774,18297,32767
1739651257.9305193,20164,-23584,-4972,-1577,21190,32767
1739651257.9315,21208,-22864,-5936,-1630,24871,32767
1739651257.9315,21864,-22476,-6952,-1878,28694,32767
1739651257.9325004,21756,-22424,-8156,-1869,32767,32767
1739651257.9335268,21476,-22448,-8980,-1692,32767,32521
1739651257.9345267,20920,-22472,-9604,-1073,32767,30561
1739651257.9345267,20792,-22576,-8972,-241,32767,28252
1739651257.9355006,20236,-22564,-8212,761,32767,25463
1739651257.9364986,19492,-22292,-6744,1948,32767,22150
1739651257.9375248,18980,-22228,-5736,3375,32767,18339
1739651257.9385,18352,-22572,-5044,5073,32767,14197
1739651257.9385,17488,-22808,-4760,6918,32767,9691
1739651257.9394982,17012,-22880,-5184,9014,32767,5093
1739651257.9404993,16436,-23264,-5576,11333,32767,206
1739651257.9404993,15732,-24228,-5988,13846,32767,-4678
1739651257.942003,11608,-26920,-6440,23624,32303,-22772
1739651257.9430382,11084,-27556,-6880,25269,28719,-26442
1739651257.9440336,10264,-28148,-6908,26462,24965,-29430
1739651257.9450083,10044,-29308,-7192,27195,21531,-31725
1739651257.9450083,9904,-30544,-8140,27516,18633,-32768
1739651257.9460073,9376,-32608,-8816,27285,16805,-32768
1739651257.97919,9152,-32768,-11372,27636,15056,-32768
1739651257.97919,8412,-32768,-13120,28994,12832,-32768
1739651257.980277,6928,-32768,-13276,30277,11113,-32768
1739651257.981286,6524,-32768,-13592,31530,9543,-32768
1739651257.9822893,6516,-32768,-13640,32422,7745,-32768
1739651257.9822893,6696,-32768,-14576,32767,6499,-32768
1739651257.9832883,6172,-32768,-15912,32767,5922,-32768
1739651257.9843807,6068,-32768,-16016,32767,5219,-32768
1739651257.9843807,6152,-32768,-15512,32767,4743,-32768
1739651257.9862862,6424,-32768,-14652,32767,3893,-32768
1739651257.9862862,5744,-32768,-14036,32767,2407,-32768
1739651257.987374,5096,-32768,-13620,32754,681,-32768
1739651257.988284,3856,-32768,-12984,31962,-1028,-32768
1739651257.9892838,2216,-32768,-12016,30824,-3578,-32768
1739651258.0394032,1880,-32768,-10992,29799,-6243,-32768
1739651258.0394032,364,-32768,-10264,28635,-9090,-32768
1739651258.0403976,-676,-32768,-9576,27905,-12233,-32768
1739651258.0403976,-1456,-32768,-8384,26699,-14355,-32768
1739651258.0419118,-3700,-32768,-8020,25802,-15680,-32768
1739651258.0429192,-3432,-32768,-8252,25507,-15198,-32768
1739651258.0439215,-4540,-32768,-7952,24804,-13738,-32768
1739651258.0439215,-4556,-32768,-7440,23879,-11046,-32768
1739651258.0450017,-3672,-32768,-7416,22144,-6557,-32768
1739651258.0459206,-4360,-32768,-8992,21889,-535,-32768
1739651258.0469527,-5196,-32768,-10772,22623,6067,-32768
1739651258.0469527,-6296,-32768,-12180,23793,11957,-32768
1739651258.0479221,-7092,-32768,-13348,25145,18035,-32768
1739651258.048918,-7588,-32768,-14900,26708,24094,-32768
1739651258.0499172,-7524,-32768,-16036,28547,30074,-32768
1739651258.0509257,-7056,-32768,-17124,30504,32767,-32768
1739651258.0509257,-7608,-32768,-17616,32428,32767,-32768
1739651258.0519185,-8036,-32768,-18228,32767,32767,-32768
1739651258.0529175,-7912,-32768,-18900,32767,32767,-32768
1739651258.0539405,-6928,-32768,-18488,32767,32767,-32768
1739651258.0990677,-5244,-32768,-17792,32767,32767,-32768
1739651258.1000662,-3756,-32768,-17128,32767,32767,-32768
1739651258.1000662,-2592,-32768,-15456,32767,32767,-32768
1739651258.1010678,-2064,-32768,-13176,32767,32767,-32768
1739651258.1020634,-1888,-32768,-12012,32767,27398,-32768
1739651258.1020634,-2488,-32768,-9900,32767,19935,-32768
1739651258.1030633,-1744,-32768,-8592,32542,13014,-32768
1739651258.1040635,-1600,-32768,-8940,31269,6654,-32768
1739651258.105104,-2172,-32768,-7796,29113,1574,-32768
1739651258.1061006,-2724,-32768,-8840,27703,-1354,-32768
1739651258.1061006,-3104,-32768,-10540,27344,-2167,-32768
1739651258.1070628,-2880,-32768,-11244,27247,-1004,-32768
1739651258.1080625,-2696,-32768,-10668,26943,1571,-32768
1739651258.109101,-3272,-32768,-8812,26306,5242,-32768
1739651258.1100616,-3424,-32768,-7400,25625,9328,-32768
1739651258.1110604,-3260,-32768,-6316,24928,13829,-32768
1739651258.1110604,-2668,-32768,-5248,24226,18550,-32768
1739651258.1122406,-2180,-32768,-4816,23550,22795,-32768
1739651258.1132774,-1696,-32768,-4652,22934,26640,-32768
1739651258.1584926,-1316,-32768,-4500,22465,29938,-32768
1739651258.1594925,-992,-32768,-4024,21744,32614,-32768
1739651258.1594925,-912,-32768,-4236,21464,32767,-32768
1739651258.1605613,-852,-32768,-3488,21059,32767,-32768
1739651258.1615713,-536,-32768,-2696,20110,32767,-32768
1739651258.1625714,744,-32768,-2624,19013,32767,-32768
1739651258.1635697,368,-32768,-2436,18104,32767,-32768
1739651258.16458,1072,-32768,-2856,17361,32767,-32768
1739651258.16458,1324,-32768,-3016,16814,32767,-32713
1739651258.1656106,2380,-32768,-3088,16539,32767,-31960
1739651258.1665828,2584,-32768,-2612,16311,32767,-30987
1739651258.1676416,2956,-32768,-2480,15956,32767,-29938
1739651258.1676416,3868,-32768,-2924,15840,32767,-28843
1739651258.1685696,4664,-32768,-3756,16064,32767,-27881
1739651258.1705706,5580,-32768,-3712,16578,32767,-27001
1739651258.1705706,6436,-32768,-3516,17241,32767,-26439
1739651258.1716702,6868,-32768,-3164,17748,32767,-26097
1739651258.1716702,7356,-32768,-2764,18130,32767,-25836
1739651258.1735682,7692,-32768,-2572,18457,32767,-25640
1739651258.1735682,8600,-32768,-2484,18770,32767,-25471
1739651258.2189784,9612,-32768,-2988,19002,32767,-25314
1739651258.2189784,10304,-32768,-3200,19314,32767,-25342
1739651258.2202978,11116,-32768,-3972,19636,32767,-25455
1739651258.2202978,12148,-32768,-4336,19805,32767,-25655
1739651258.2213032,12632,-32768,-4988,19859,32767,-25835
1739651258.2223046,13152,-32768,-5444,19817,32767,-25941
1739651258.2233024,13740,-32768,-6072,19744,32767,-26014
1739651258.2243023,14012,-32768,-6876,19651,32767,-26058
1739651258.2253027,14860,-32768,-6376,19057,32767,-25990
1739651258.2253027,15636,-32768,-6520,18308,32767,-25926
1739651258.2263055,15880,-32768,-7172,17495,32767,-25696
1739651258.2273023,16080,-32768,-7616,16590,32767,-25550
1739651258.2283092,16660,-32768,-8488,15711,32767,-25450
1739651258.229309,16984,-32768,-8968,14752,32767,-25317
1739651258.229309,17112,-32768,-9292,13715,32767,-25107
1739651258.2303095,17192,-32768,-9368,12702,32767,-24941
1739651258.2314825,17296,-32768,-9388,11689,32767,-24767
1739651258.2314825,16900,-32768,-9252,10620,32767,-24658
1739651258.2324874,16476,-32768,-9108,9488,32767,-24534
1739651258.2334886,15996,-32768,-9028,8357,32767,-24381
1739651258.2345397,15416,-32768,-9112,7152,32767,-24081
1739651258.2789273,14976,-32768,-8780,5935,32767,-23632
1739651258.3394966,14816,-32768,-8808,4726,32767,-22869
1739651258.3394966,14196,-32768,-8388,3680,32767,-21963
1739651258.3394966,13144,-32768,-7976,2708,32767,-21016
1739651258.3404992,12748,-32768,-7512,1881,32767,-20004
1739651258.3414989,12252,-32768,-7304,1418,32767,-18924
1739651258.3424957,11776,-32768,-7276,1441,32767,-17724
1739651258.3424957,11612,-32768,-7612,1957,32767,-16506
1739651258.3447092,11908,-32768,-7480,2811,32767,-15243
1739651258.3447092,12324,-32768,-6424,3525,32767,-13999
1739651258.3458316,12564,-32768,-5484,4012,32767,-12920
1739651258.3458316,13044,-32768,-4840,4345,32767,-12073
1739651258.347881,13356,-32768,-5052,4674,32767,-11332
1739651258.347881,13140,-32768,-5176,4953,32767,-10607
1739651258.349042,12924,-32768,-5468,5152,32767,-9942
1739651258.349042,12784,-32768,-6008,5204,32767,-9246
1739651258.3500469,12760,-32768,-6400,5160,32508,-8526
1739651258.3510478,12984,-32768,-6772,5131,31583,-7792
1739651258.352154,13508,-32768,-7420,5059,30874,-7181
1739651258.3530478,13700,-32768,-8236,5081,30318,-6561
1739651258.3540492,13696,-32768,-8668,5136,29812,-6049
1739651258.3540492,14144,-32768,-8884,5054,29516,-5784
1739651258.3561409,14768,-32768,-9324,4671,29584,-5519
1739651258.3570478,14852,-32768,-9540,4057,29529,-5153
1739651258.3570478,15140,-32768,-10288,3427,29495,-4824
1739651258.358394,15560,-32768,-11008,2823,29468,-4545
1739651258.3594012,16416,-32768,-11600,2181,29633,-4379
1739651258.3594012,17096,-32608,-12072,1427,29995,-4380
1739651258.3615098,17548,-31764,-12208,535,30409,-4508
1739651258.3617249,17672,-31076,-12400,-538,30626,-4783
1739651258.3627548,17936,-30664,-12316,-1792,30766,-5016
1739651258.3631065,17436,-32108,-13588,-11809,29418,-2542
1739651258.3636115,17716,-32032,-13828,-12731,27894,-1873
1739651258.3649457,18076,-31996,-14032,-13430,27447,-1076
1739651258.3654497,18196,-32608,-14620,-14366,26183,-355
1739651258.3664541,18752,-32768,-15856,-14850,25055,296
1739651258.367457,19160,-32608,-16112,-15536,23541,987
1739651258.3684576,19724,-32356,-16316,-16501,22306,1639
1739651258.3984544,20000,-32564,-16884,-17586,21135,2234
1739651258.3984544,20284,-32768,-18256,-18649,19606,2934
1739651258.399862,21176,-32768,-19520,-19625,18042,3567
1739651258.4008727,22356,-32768,-20840,-20569,16455,4179
1739651258.4018686,23532,-32768,-21944,-21600,14806,4742
1739651258.4018686,24416,-32768,-22972,-22913,13289,5191
1739651258.403379,24724,-32768,-23756,-24642,11902,5610
1739651258.4043915,24512,-31664,-24556,-26666,10981,5948
1739651258.405394,23936,-30256,-25804,-28666,10086,6033
1739651258.405394,23332,-30004,-26424,-30892,8926,6195
1739651258.4064476,22540,-30204,-27028,-32511,8005,6590
1739651258.407478,21476,-29672,-27136,-32768,7201,7369
1739651258.408385,20892,-28844,-26780,-32768,6578,8315
1739651258.4589002,20248,-28188,-26164,-32768,5924,9601
1739651258.4589002,19220,-27876,-25708,-32768,5268,11036
1739651258.4598985,18512,-27692,-25292,-32768,4405,12541
1739651258.4608972,17804,-27568,-25288,-32768,3574,13775
1739651258.4619033,17776,-26932,-25284,-32768,1912,14848
1739651258.4619033,18128,-26420,-24660,-32768,-261,15994
1739651258.4639916,19032,-25772,-24180,-32768,-2669,17253
1739651258.4639916,19920,-24896,-23596,-32768,-5249,18564
1739651258.464949,20532,-24524,-23348,-32768,-7956,20087
1739651258.465899,21152,-24596,-23560,-32768,-10719,21543
1739651258.5189042,21588,-24644,-23832,-32768,-13598,22824
1739651258.5189042,22312,-24420,-24088,-32768,-16436,23961
1739651258.5203328,23380,-23860,-24356,-32768,-19348,24997
1739651258.5213418,25260,-22972,-24304,-32768,-22146,25736
1739651258.5213418,27116,-22056,-24496,-32768,-24678,26421
1739651258.522342,28672,-20976,-24368,-32768,-27166,27114
1739651258.5233727,29824,-20124,-24416,-32768,-29797,27664
1739651258.5243387,31212,-19012,-24348,-32768,-31026,27970
1739651258.5253382,31552,-18088,-24792,-32768,-32240,28207
1739651258.5253382,31188,-17068,-24892,-32768,-32768,27836
1739651258.5263388,31248,-15732,-24692,-32768,-32768,27086
1739651258.5273383,31628,-13644,-24296,-32768,-32768,26131
1739651258.5283997,32116,-12064,-23692,-32768,-32768,25060
1739651258.5294075,32328,-9984,-22976,-32768,-32768,24043
1739651258.5294075,32252,-8076,-21812,-32768,-32768,23061
1739651258.530853,32288,-6748,-21260,-32768,-32768,22130
1739651258.5318577,31296,-5524,-21064,-32768,-32768,21294
1739651258.5318577,30048,-4660,-20604,-32768,-32768,20350
1739651258.5339344,29072,-4020,-20056,-32768,-32768,19040
1739651258.5339344,27384,-4332,-19172,-32768,-32768,17237
1739651258.5349755,27832,-2464,-17888,-32768,-32768,15755
1739651258.5358598,27692,-604,-15556,-32768,-32768,14825
1739651258.5368955,27572,1664,-13516,-32768,-32768,14290
1739651258.5368955,26900,3708,-11244,-32480,-32768,14098
1739651258.5378597,24908,4140,-9124,-31532,-32768,14008
1739651258.538862,22412,3100,-7144,-30644,-32768,13275
1739651258.5398602,21364,3228,-5924,-29594,-32768,12723
1739651258.5398602,20688,4376,-5052,-27592,-32768,12316
1739651258.541095,20496,5816,-3332,-25343,-32768,12157
1739651258.541095,20344,6756,-820,-23225,-32768,12057
1739651258.543605,19728,7212,956,-21230,-32768,12066
1739651258.5784123,18892,7412,2388,-19313,-32768,11750
1739651258.579312,17988,7588,3712,-17213,-32768,11442
1739651258.580352,16476,7984,5180,-15107,-32768,11001
1739651258.580352,15856,8704,6896,-12977,-32768,10425
1739651258.5813682,15464,9200,8284,-10859,-32768,9766
1739651258.5823731,15080,9756,9456,-8743,-32768,9134
1739651258.583377,14364,10508,10364,-6600,-32768,8595
1739651258.5843773,13256,11476,11372,-4594,-32768,7987
1739651258.6389632,11968,11884,11672,-2655,-32768,7159
1739651258.6389632,10808,12576,12080,-897,-32768,6295
1739651258.6399612,10104,12872,12404,767,-32768,5276
1739651258.6409612,9796,13576,12396,2332,-32768,4396
1739651258.6409612,9072,14116,12392,3788,-32768,3551
1739651258.6425545,8148,14676,12468,5044,-32768,2725
1739651258.6425545,7360,14972,11856,6384,-32768,1958
1739651258.643563,6340,15284,11688,7714,-32768,1253
1739651258.6449056,5216,14984,11216,9003,-32768,524
1739651258.6449056,4444,14660,11216,10182,-32768,-225
1739651258.6459112,3812,14356,11316,11215,-32768,-946
1739651258.6471562,3564,13352,11168,12076,-32768,-1579
1739651258.6471562,2864,12512,11596,12542,-32768,-2173
1739651258.6481612,1480,11860,11352,12764,-32768,-2934
1739651258.649161,496,11116,10816,12840,-32768,-3720
1739651258.650383,-72,10244,10692,12895,-32768,-4416
1739651258.650383,-640,9612,10400,12794,-32768,-4964
1739651258.6523895,-1108,9088,10064,12655,-32768,-5386
1739651258.6523895,-1808,8380,9552,12482,-32768,-5640
1739651258.6534925,-2132,7572,9504,12229,-32768,-5830
1739651258.6543882,-2560,6936,9732,11880,-32768,-5869
1739651258.6553898,-2912,6584,9580,11430,-32768,-5882
1739651258.6553898,-3136,5920,9548,10957,-32768,-5803
1739651258.6564682,-3492,5344,9760,10418,-32768,-5606
1739651258.657451,-3988,4872,9584,9857,-32768,-5460
1739651258.657451,-4096,4264,9800,9263,-32768,-5301
1739651258.6593907,-4508,3900,9852,8701,-32768,-5112
1739651258.6593907,-4544,3068,9964,8155,-32768,-4980
1739651258.6605184,-4668,2332,10152,7701,-32768,-4866
1739651258.6613927,-4520,1788,10516,7220,-32768,-4755
1739651258.6613927,-4460,1572,10408,6737,-32768,-4706
1739651258.662388,-4352,1344,10504,6251,-32768,-4655
1739651258.663427,-4076,1312,10272,5818,-32768,-4637
1739651258.6643898,-3728,1056,10296,5398,-32768,-4653
1739651258.665389,-3460,800,10304,5009,-32768,-4649
1739651258.665389,-2956,436,10108,4656,-32768,-4648
1739651258.666391,-3020,700,10492,4326,-32768,-4656
1739651258.6983895,-2844,660,10512,3905,-32768,-4730
1739651258.6993928,-2836,712,10296,3559,-32768,-4822
1739651258.6993928,-2768,592,10004,3233,-32768,-4919
1739651258.7008402,-2588,344,9712,3017,-32768,-5023
1739651258.7019038,-2268,120,9512,2852,-32768,-5038
1739651258.7019038,-2292,-88,9568,2595,-32714,-5039
1739651258.703117,-2312,-284,9444,2262,-31911,-5011
1739651258.70414,-2400,-260,9316,1842,-31345,-4960
1739651258.7051284,-2120,-376,8880,1433,-30626,-4881
1739651258.7051284,-2316,-572,8316,1071,-30066,-4735
1739651258.7062006,-2272,-684,7912,701,-29379,-4652
1739651258.7071273,-2524,-624,7472,277,-28643,-4524
1739651258.7081232,-2408,-944,6940,-111,-27921,-4347
1739651258.7081232,-2708,-1284,6860,-410,-27366,-4115
1739651258.7587876,-2880,-1564,6396,-899,-26869,-3880
1739651258.7597842,-3132,-1820,6528,-1484,-26505,-3667
1739651258.7597842,-3312,-1988,6192,-2125,-26105,-3473
1739651258.7607825,-3700,-2504,5928,-2690,-25784,-3275
1739651258.7618752,-3980,-2964,5256,-3214,-25329,-3070
1739651258.7618752,-4296,-3084,4916,-3715,-25004,-2825
1739651258.762785,-4708,-3488,4688,-4306,-24517,-2616
1739651258.764258,-5304,-4404,4484,-4877,-24359,-2496
1739651258.764258,-5468,-4844,4184,-5206,-24262,-2339
1739651258.765263,-5560,-4868,3976,-5563,-24063,-2196
1739651258.7662637,-5852,-4800,4216,-6106,-23808,-2131
1739651258.7673628,-5836,-4604,4128,-6758,-23421,-2088
1739651258.7673628,-5772,-4776,3708,-7421,-22746,-2062
1739651258.7687821,-5752,-5016,3380,-8079,-21993,-2003
1739651258.7697883,-5576,-5256,2800,-8619,-20986,-1909
1739651258.7697883,-5784,-5508,2772,-9103,-20016,-1717
1739651258.7707906,-6104,-5848,2872,-9636,-19001,-1629
1739651258.7718403,-6608,-5956,3144,-10189,-18453,-1560
1739651258.7728894,-6376,-6612,3168,-10680,-17779,-1483
1739651258.7737937,-6324,-7176,3212,-11010,-16970,-1230
1739651258.7737937,-6476,-7916,3144,-11282,-16396,-960
1739651258.775835,-6800,-7896,3296,-11566,-15818,-764
1739651258.8181717,-6556,-8204,3340,-11721,-14947,-551
1739651258.8190882,-6040,-8648,3096,-11808,-14189,-126
1739651258.820086,-5572,-9264,3104,-11733,-13378,414
1739651258.8210857,-5028,-10016,2728,-11495,-12477,1170
1739651258.8220859,-5172,-10344,2748,-11216,-11786,1887
1739651258.8220859,-4792,-11272,2440,-10723,-10850,2764
1739651258.8232183,-4728,-11948,2612,-10198,-10242,3578
1739651258.8240838,-4560,-12796,2472,-9589,-9554,4419
1739651258.825161,-4708,-13584,2560,-9020,-9128,5165
1739651258.825161,-4340,-14128,2076,-8161,-8845,6264
1739651258.826262,-4260,-14780,1556,-7291,-8567,7294
1739651258.8273268,-4492,-15100,1296,-6410,-8811,8463
1739651258.8273268,-5148,-14872,1744,-5697,-9412,9541
1739651258.8288832,-5304,-15076,1564,-5077,-9613,10503
1739651258.829888,-6356,-15112,-184,-4142,-9500,11573
1739651258.829888,-6468,-14708,32,-3591,-9942,12986
1739651258.8308878,-7416,-14276,740,-3425,-10920,14396
1739651258.831894,-8252,-14220,584,-3432,-11345,15780
1739651258.8329911,-8608,-14352,-220,-3405,-12008,17469
1739651258.833984,-9292,-14900,-864,-3160,-12521,19347
1739651258.878453,-9588,-15224,-1060,-2903,-12213,21463
1739651258.87946,-10908,-15220,-452,-3150,-12636,23617
1739651258.87946,-11280,-15748,364,-3414,-12194,25950
1739651258.8808901,-11704,-16608,776,-3775,-11447,28217
1739651258.8819005,-12448,-17720,680,-4029,-10890,30667
1739651258.8819005,-12740,-18848,804,-3927,-10664,32767
1739651258.8838964,-12620,-20660,828,-3296,-10032,32767
1739651258.8838964,-12464,-22248,520,-2206,-9562,32767
1739651258.8849976,-11248,-24576,668,-163,-6945,32767
1739651258.8858955,-13872,-24712,1300,826,-8269,32767
1739651258.8858955,-14400,-25224,1508,1333,-11765,32767
1739651258.8874514,-12688,-25536,1172,2331,-13783,32767
1739651258.8874514,-11760,-26396,636,3408,-16127,32767
1739651258.8884563,-10800,-27796,408,4557,-18438,32767
1739651258.8895383,-9484,-28480,-20,5753,-20507,32767
1739651258.8904574,-9644,-29240,-528,6958,-22695,32767
1739651258.8915575,-8292,-29392,-372,8083,-24747,32767
1739651258.8915575,-6836,-29120,-628,8884,-26035,32767
1739651258.8924582,-5240,-29396,-368,9283,-26660,32767
1739651258.8944566,-3548,-29332,-124,9505,-25690,32767
1739651258.938665,-2580,-29072,-380,9504,-23975,32767
1739651258.938665,-1928,-28500,-652,9335,-21544,32767
1739651258.9397647,-1596,-27752,-512,8990,-18508,32767
1739651258.9408612,-1540,-27248,-880,8646,-15926,32767
1739651258.9417737,-516,-27420,-1228,8250,-13289,32767
1739651258.9417737,1456,-27380,-1204,7743,-10609,32767
1739651258.9433692,3740,-27340,-1324,6994,-8605,32767
1739651258.9433692,6148,-26968,-1148,6028,-7080,32767
1739651258.9453757,7304,-26556,-1672,5077,-5843,32767
1739651258.9453757,7488,-26136,-2372,4230,-4713,32767
1739651258.9464645,6620,-25480,-2408,3351,-3879,32767
1739651258.9473767,5920,-25064,-2648,2354,-3382,32767
1739651258.9473767,5912,-24856,-2528,1247,-2793,32767
1739651258.9486163,6428,-24876,-2644,-29,-2203,32767
1739651258.9496226,6760,-25308,-2908,-1473,-1593,32767
1739651258.9506247,6952,-25416,-3164,-3044,-1085,32767
1739651258.9506247,6664,-25324,-4224,-4601,-570,32767
1739651258.9516225,6256,-24776,-5244,-6070,-27,32767
1739651258.952623,6252,-24232,-5920,-7408,879,32767
1739651258.9536283,6004,-23916,-6788,-8574,2153,32767
1739651258.9986255,5716,-23824,-7580,-9485,3880,32767
1739651258.9986255,5724,-23704,-7636,-10132,6034,32767
1739651259.0000515,5496,-23652,-7464,-10733,8467,32767
1739651259.0586479,5472,-23508,-6996,-11401,11478,32767
1739651259.0596454,5356,-23420,-6772,-12195,15158,32767
1739651259.0596454,5428,-23544,-6432,-12904,19543,32767
1739651259.060648,5480,-23600,-6696,-13453,24137,32767
1739651259.0616736,5628,-24052,-6852,-13941,28948,32767
1739651259.0626464,6196,-24824,-7156,-14065,32767,32767
1739651259.0636442,6652,-25244,-6804,-14015,32767,32767
1739651259.0636442,6988,-25604,-5576,-13956,32767,32767
1739651259.0650535,7236,-25836,-4648,-13945,32767,32767
1739651259.0650535,7708,-26080,-4760,-13611,32767,32617
1739651259.0660627,8168,-26116,-5012,-12953,32767,32049
1739651259.0670605,8744,-25992,-5292,-11988,32767,31569
1739651259.0680645,9296,-25728,-5280,-10755,32767,31306
1739651259.0691583,10144,-25556,-5288,-9304,32767,31273
1739651259.070059,11000,-24932,-5520,-7718,32767,31494
1739651259.070059,12308,-24032,-5744,-5879,32767,31999
1739651259.0710607,13564,-23544,-5652,-4052,32767,32721
1739651259.0721717,14652,-23216,-5336,-2175,32767,32767
1739651259.0730615,15952,-23328,-4924,-29,32767,32767
1739651259.0741565,16940,-23444,-4628,2530,32767,32767
1739651259.1190624,16752,-24388,-4244,5301,32767,32767
1739651259.1190624,19940,-23732,-2480,7273,32767,32767
1739651259.120064,22432,-22872,-1276,8573,32767,32767
1739651259.1210647,24116,-22612,-1260,9734,32767,32767
1739651259.1210647,25820,-23204,-1664,11252,32767,32767
1739651259.1225536,27316,-23784,-2728,13180,32767,32767
1739651259.1225536,28660,-23908,-3068,15745,32767,32767
1739651259.124637,29636,-23772,-1996,18103,32767,32767
1739651259.124637,28580,-22104,-1996,20064,32767,28757
1739651259.1256337,27528,-20668,-3540,22061,23604,21283
1739651259.1266503,18764,-19224,-5568,22963,-27795,-32768
1739651259.1275597,18176,-21368,-6172,21328,-30198,-32768
1739651259.1275597,16776,-22576,-6616,19624,-31686,-32768
1739651259.1288652,14664,-23648,-6356,17870,-32239,-32768
1739651259.1299126,12328,-24856,-5912,15992,-31681,-32768
1739651259.1308722,9904,-25732,-5360,13963,-31285,-32768
1739651259.1308722,9068,-27760,-4640,11970,-29925,-32768
1739651259.1318908,8608,-29800,-4196,9613,-28223,-32768
1739651259.1329725,7560,-31560,-4628,8555,-25787,-32768
1739651259.133918,6464,-32768,-4812,7775,-24532,-32768
1739651259.133918,6356,-32768,-4180,7412,-22802,-32768
1739651259.1358972,6000,-32768,-3232,7409,-20592,-32768
1739651259.1358972,4324,-32768,-1504,7531,-18133,-32768
1739651259.1370285,3164,-32768,28,7320,-17457,-32768
1739651259.137898,2100,-32768,964,7451,-17717,-32768
1739651259.137898,1480,-32768,1860,8321,-17402,-32768
1739651259.1389828,1180,-32768,2080,9715,-15846,-32768
1739651259.1399877,584,-32768,1380,11979,-13633,-32768
1739651259.1414084,672,-32768,-1900,15814,-10064,-32768
1739651259.1414084,-1356,-32768,-2344,20157,-4039,-32768
1739651259.1425066,-3144,-32768,-1988,24298,2789,-32768
1739651259.1434083,-5384,-32768,-1292,28247,10962,-32768
1739651259.1434083,-9068,-32768,-76,31438,18368,-32768
1739651259.1445603,-11608,-32768,1480,32767,24637,-32768
1739651259.1455607,-11916,-32768,3936,32767,29247,-32768
1739651259.1467042,-10280,-32768,5564,32767,31138,-32768
1739651259.1785636,-7044,-32768,5704,31827,30838,-32768
1739651259.1785636,-3364,-32768,5128,30365,29360,-32768
1739651259.179999,276,-32768,3796,29534,27855,-32768
1739651259.1810327,2372,-32768,3132,28940,25338,-32768
1739651259.1810327,2428,-32768,2512,28376,21605,-32768
1739651259.1824048,700,-32768,2596,28220,18415,-32768
1739651259.1834126,-1032,-32768,2876,28272,15771,-32768
1739651259.1834126,-1992,-32768,3432,28348,13824,-32768
1739651259.1846352,-2056,-32768,4300,28139,12896,-32768
1739651259.1857173,-1760,-32768,5032,27497,13198,-32768
1739651259.186641,-1216,-32768,5248,26945,14857,-32768
1739651259.1876395,-1036,-32768,4912,26638,17589,-32768
1739651259.1876395,-1108,-32768,4420,26596,21034,-32768
1739651259.1891618,-1404,-32768,4204,26707,24867,-32768
1739651259.2391853,-1476,-32768,4008,26943,29070,-32768
1739651259.2391853,-1268,-32768,3464,27263,32767,-32768
1739651259.2401764,-820,-32768,2564,27640,32767,-32768
1739651259.2401764,-24,-32768,1316,28065,32767,-32768
1739651259.24123,620,-32768,460,28522,32767,-32768
1739651259.2424715,1496,-32768,-384,28649,32767,-32768
1739651259.243484,2460,-32768,-1452,28485,32767,-32768
1739651259.243484,3320,-32768,-1904,28051,32767,-32768
1739651259.245492,4552,-32768,-2396,27549,32767,-32768
1739651259.245492,5396,-32768,-2608,27168,32767,-32768
1739651259.246492,6212,-32768,-2716,26661,32767,-32768
1739651259.2474885,7564,-32768,-2584,26197,32767,-32768
1739651259.2474885,9128,-32768,-2460,25930,32767,-32768
1739651259.248897,10300,-32768,-2572,25813,32767,-32768
1739651259.2499065,11484,-32768,-2840,25869,32767,-32768
1739651259.250955,12056,-32768,-3440,26212,32767,-32768
1739651259.250955,11728,-32768,-4116,26821,32767,-32768
1739651259.2520237,11604,-32768,-5248,27601,32767,-32768
1739651259.2530103,11788,-32768,-6544,28744,32767,-32768
1739651259.2539036,12148,-32768,-7184,29803,32767,-32768
1739651259.2539036,12608,-32768,-7956,30839,32767,-32768
1739651259.255953,12744,-32768,-8672,31677,32767,-32768
1739651259.2989023,12636,-32768,-9324,32439,32767,-32768
1739651259.2999058,12356,-32768,-9600,32767,32767,-32768
1739651259.2999058,12040,-32768,-10268,32767,32767,-32768
1739651259.3009024,11564,-32768,-10936,32689,32767,-32768
1739651259.3019023,11560,-32768,-11636,32174,32367,-32768
1739651259.30291,11688,-32768,-12620,31458,31906,-32768
1739651259.30291,10892,-32768,-13080,30692,31438,-32768
1739651259.303904,10336,-32768,-13228,28389,32007,-32768
1739651259.3049083,10232,-32768,-14728,26469,32657,-32768
1739651259.3580303,10132,-32768,-15652,24718,32767,-32768
1739651259.3594844,9728,-32768,-16364,22960,32767,-32768
1739651259.3594844,9820,-32768,-16884,21178,32767,-32768
1739651259.3609126,10392,-32768,-17268,19356,32767,-32768
1739651259.3619213,10644,-32768,-17544,17345,32767,-32768
1739651259.3629186,10952,-32768,-17696,15219,32767,-31746
1739651259.3629186,11164,-32768,-18108,13052,32767,-29566
1739651259.3639188,11228,-32768,-18672,10926,32767,-27324
1739651259.3639188,10892,-32768,-19824,9045,32767,-25158
1739651259.3653188,10532,-32768,-20476,7341,32767,-23046
1739651259.3666983,10108,-32768,-20572,5846,32767,-21115
1739651259.3677053,10284,-32768,-19996,4373,32767,-19276
1739651259.3677053,10920,-32768,-19108,2842,32767,-17636
1739651259.369133,11920,-32768,-18336,1287,32767,-16004
1739651259.3701386,13240,-32768,-17684,-235,32767,-14571
1739651259.3701386,14136,-32768,-16956,-1713,32767,-13418
1739651259.3711388,14676,-32768,-16036,-3121,32767,-12532
1739651259.3722084,14796,-32768,-15144,-4320,32767,-11901
1739651259.373161,14984,-32768,-14608,-5314,32767,-11412
1739651259.3741376,16064,-32768,-13640,-6130,32767,-11424
1739651259.3741376,17388,-32768,-12332,-6833,32767,-11513
1739651259.3756068,18296,-32768,-11140,-7360,32767,-11604
1739651259.3766122,18868,-32768,-10080,-7768,32767,-11897
1739651259.3776138,18968,-32768,-8720,-8365,32767,-12204
1739651259.3776138,19536,-32768,-7940,-8709,32767,-12738
1739651259.3790207,19860,-32768,-7808,-8831,32767,-13241
1739651259.3800807,20316,-32768,-7520,-8921,32767,-13605
1739651259.3800807,20588,-32768,-7268,-8865,32767,-13949
1739651259.381334,20516,-32768,-7100,-8602,32767,-14124
1739651259.3823411,20068,-32768,-6808,-8283,32767,-14262
1739651259.3823411,19632,-32768,-6768,-8124,32767,-14329
1739651259.384448,19380,-32396,-7012,-7936,32582,-14272
1739651259.384448,19080,-31956,-7352,-7684,31559,-14020
1739651259.3853507,18856,-31704,-7716,-7403,30529,-13693
1739651259.3863387,18692,-31264,-8224,-6994,29549,-13351
1739651259.418637,18440,-30984,-8884,-6546,28684,-12906
1739651259.4196281,18172,-31128,-9588,-5949,27553,-12472
1739651259.4196281,17724,-31264,-9980,-5375,25917,-11985
1739651259.4206674,17736,-31256,-10224,-4861,24019,-11546
1739651259.4217563,17952,-30816,-10488,-4587,22356,-10885
1739651259.4226286,18144,-29968,-10808,-4622,21006,-10064
1739651259.423632,18180,-29784,-11252,-4745,19731,-9033
1739651259.423632,17720,-30404,-11792,-4877,18542,-7964
1739651259.4246824,17684,-30700,-12436,-5113,17266,-6815
1739651259.4259174,17916,-30704,-13032,-5347,16382,-5589
1739651259.4269283,18340,-30684,-13524,-5598,15727,-4318
1739651259.4789107,18680,-31332,-13340,-5755,15216,-3026
1739651259.4789107,18680,-31548,-13004,-5964,14806,-1759
1739651259.480243,19072,-30844,-12512,-6383,14600,-691
1739651259.4812486,19440,-30092,-11956,-7021,14635,348
1739651259.4812486,19576,-30060,-11248,-7717,14518,1209
1739651259.4823983,19964,-30356,-10784,-8254,14348,1850
1739651259.4834054,20572,-30312,-10240,-8600,14128,2227
1739651259.4845042,21412,-29644,-9660,-8807,14054,2517
1739651259.4845042,21544,-28444,-9100,-8964,13966,2620
1739651259.4854033,21224,-27864,-8600,-9023,13714,2537
1739651259.4865298,20540,-28068,-8000,-8901,13007,2337
1739651259.4874065,20604,-27568,-7444,-8671,12191,2017
1739651259.488404,20612,-26764,-7288,-8376,11555,1649
1739651259.488404,20456,-26064,-7384,-8125,10728,1287
1739651259.4894845,20088,-25376,-7508,-8040,9697,868
1739651259.4904053,19756,-24984,-7644,-8007,8880,379
1739651259.4914076,19152,-24412,-7868,-7957,8296,-84
1739651259.4914076,18524,-23972,-8044,-7952,8012,-512
1739651259.4925807,17912,-23340,-8008,-8163,7798,-612
1739651259.4935887,16976,-23388,-7884,-8621,7873,-418
1739651259.4935887,16248,-23876,-8148,-9053,7644,129
1739651259.4950564,15892,-24832,-8284,-9401,7184,992
1739651259.4960613,15096,-25696,-8540,-9662,6944,1937
1739651259.4960613,14812,-26184,-8896,-9931,6426,3079
1739651259.4970622,14884,-26468,-9216,-10150,6291,4120
1739651259.4980614,15172,-26560,-9800,-10386,5759,5382
1739651259.538066,15420,-27032,-10488,-10506,5005,6786
1739651259.539243,15064,-27592,-10784,-10508,4012,8122
1739651259.5402474,14936,-27500,-10816,-10930,2224,10223
1739651259.5412488,14864,-27224,-11032,-11594,1569,11872
1739651259.5412488,14648,-26968,-11408,-12292,1041,13164
1739651259.5422504,14648,-26812,-12104,-12930,389,14358
1739651259.5422504,14720,-27276,-12688,-13510,-459,15391
1739651259.5437543,15608,-27064,-13296,-14041,-1257,16435
1739651259.5448112,16540,-26480,-14012,-14584,-1888,17567
1739651259.5458179,17212,-25500,-14556,-15284,-2504,18618
1739651259.5467608,17564,-24648,-15004,-16112,-3149,19561
1739651259.5467608,17752,-23924,-15472,-17010,-4077,20492
1739651259.5481339,17800,-23896,-15648,-17870,-5012,21395
1739651259.5481339,17460,-23528,-16016,-18832,-5893,22206
1739651259.549375,17456,-23272,-16436,-19692,-6704,22744
1739651259.551425,17640,-22784,-16572,-20489,-7216,23150
1739651259.5983853,18180,-22288,-16980,-21270,-7566,23424
1739651259.599382,18404,-21716,-17228,-22037,-7952,23745
1739651259.600385,18500,-21060,-17520,-22801,-8320,23965
1739651259.600385,18364,-20448,-17460,-23623,-8881,24196
1739651259.60151,18072,-20108,-17444,-24277,-9498,24516
1739651259.602573,17980,-19504,-17220,-24825,-9996,24834
1739651259.602573,17764,-19160,-17100,-25137,-10656,25305
1739651259.6041918,17596,-18868,-17008,-25276,-11397,25824
1739651259.6051974,17304,-18552,-17076,-25259,-12321,26278
1739651259.6062286,16972,-17760,-16652,-25355,-13628,26694
1739651259.6071982,16992,-16824,-16792,-25509,-14810,27078
1739651259.6071982,16976,-15740,-16656,-25788,-16079,27449
1739651259.608199,17084,-14888,-16920,-26148,-17371,27866
1739651259.6095498,17132,-14316,-16868,-26356,-18415,28356
1739651259.6095498,16956,-14036,-16784,-26448,-19447,28857
1739651259.610558,16768,-13492,-16960,-26294,-20555,29365
1739651259.6116695,16784,-12788,-17136,-25991,-21543,29829
1739651259.6584713,16796,-12104,-17128,-25595,-22544,30197
1739651259.6593914,17024,-11412,-17208,-25155,-23955,30401
1739651259.6603858,17580,-10568,-17128,-24805,-25414,30559
1739651259.6613874,18424,-9556,-17212,-24594,-26658,30802
1739651259.6613874,18876,-8876,-17096,-24310,-27925,31144
1739651259.6623826,19004,-8212,-17340,-23952,-29012,31419
1739651259.663482,18800,-7380,-17452,-23436,-30233,31628
1739651259.663482,18640,-6272,-17580,-22866,-31208,31721
1739651259.664494,18372,-5080,-17564,-22310,-31914,31721
1739651259.665501,18280,-4136,-17284,-21852,-32201,31614
1739651259.6665778,17756,-3276,-17308,-21436,-32657,31289
1739651259.6675937,18164,-2076,-16760,-21122,-32768,31023
1739651259.6675937,18584,-988,-16588,-21114,-32768,30815
1739651259.6692019,18868,-116,-16032,-21189,-32768,30547
1739651259.7183626,18840,592,-15684,-21256,-32768,30183
1739651259.7183626,18420,864,-15488,-21266,-32768,29791
1739651259.719649,17444,1344,-15032,-21164,-32768,29143
1739651259.7206557,17152,1996,-14536,-20980,-32768,28392
1739651259.72173,16744,2656,-13700,-20779,-32768,27626
1739651259.7226639,16124,3212,-12564,-20594,-32768,26809
1739651259.7236567,15920,3528,-11232,-20435,-32768,25974
1739651259.7236567,15332,4008,-10496,-20275,-32768,25139
1739651259.7256908,14916,4252,-9508,-20242,-32768,24089
1739651259.7256908,14792,4540,-8416,-20196,-32768,23097
1739651259.726765,14184,5124,-7544,-20139,-32768,22196
1739651259.726765,13632,5376,-6712,-20008,-32768,21339
1739651259.7277718,12648,5596,-5868,-19725,-32768,20476
1739651259.7288918,11908,5496,-5328,-19308,-32768,19694
1739651259.729897,10876,5652,-4540,-18823,-32768,18815
1739651259.729897,10372,5724,-3848,-18292,-32768,17936
1739651259.730897,9756,5592,-3232,-17748,-32768,17143
1739651259.7318954,9152,5624,-2684,-17206,-32768,16358
1739651259.7329428,8500,5644,-2140,-16679,-32768,15525
1739651259.7338986,8004,5688,-1588,-16089,-32768,14698
1739651259.7338986,7276,5896,-1304,-15474,-32768,13881
1739651259.7350972,6716,6076,-988,-14886,-32768,13180
1739651259.73621,5968,6168,-600,-14241,-32768,12436
1739651259.7371523,5552,6212,-284,-13535,-32768,11815
1739651259.7371523,4612,6296,12,-12832,-32768,11033
1739651259.7384565,4344,6112,296,-12151,-32768,10276
1739651259.7394674,3864,6052,584,-11541,-32768,9548
1739651259.7394674,3028,5772,952,-11098,-32768,8762
1739651259.740593,2492,5368,1056,-10624,-32768,7997
1739651259.741601,1696,4932,1300,-10201,-32768,7166
1739651259.7426038,900,4312,1636,-9834,-32768,6283
1739651259.7426038,288,3972,1952,-9516,-32768,5451
1739651259.74413,-332,3580,2304,-9247,-32768,4673
1739651259.74413,-952,3268,2692,-9073,-32768,3991
1739651259.745276,-1508,2920,3060,-8945,-32768,3394
1739651259.7464232,-2072,2424,3376,-8854,-32768,2904
1739651259.778435,-2668,2192,3940,-8869,-32768,2446
1739651259.7794337,-3080,2100,4508,-8959,-32768,2016
1739651259.7794337,-3400,1944,4644,-9099,-32768,1650
1739651259.7804306,-3944,1716,4948,-9189,-32768,1287
1739651259.7814295,-4420,1344,5052,-9277,-32768,1034
1739651259.7824333,-5356,900,5340,-9360,-32768,904
1739651259.7824333,-5896,640,5116,-9469,-32768,966
1739651259.7834291,-6504,480,4932,-9609,-32768,1212
1739651259.7846546,-6984,320,4820,-9799,-32768,1575
1739651259.7846546,-7472,160,4792,-9944,-32768,2022
1739651259.785937,-8152,76,4784,-10134,-32768,2477
1739651259.7869463,-8408,-36,4560,-10331,-32768,2957
1739651259.839182,-8668,-272,4340,-10475,-32768,3588
1739651259.839182,-9108,-68,4076,-10679,-32768,4202
1739651259.8401847,-9512,-528,4028,-10829,-32768,4785
1739651259.8401847,-9812,-1384,3864,-10889,-32768,5412
1739651259.8416693,-9788,-1608,3904,-10933,-32768,6061
1739651259.8427503,-10048,-1428,3884,-11057,-32768,6566
1739651259.8427503,-9636,-1456,3792,-11166,-32768,7080
1739651259.84426,-9016,-1848,3680,-11212,-32661,7684
1739651259.84426,-9156,-2036,3392,-11276,-31854,8298
1739651259.845312,-9228,-2372,3400,-11312,-31405,8903
1739651259.8465476,-8668,-2776,3392,-11197,-30571,9637
1739651259.8475525,-8236,-3288,3560,-11098,-29918,10505
1739651259.8475525,-7928,-3552,3556,-11032,-29446,11407
1739651259.8485534,-7592,-3896,3468,-10967,-28884,12403
1739651259.8496838,-7468,-4172,3304,-10812,-28333,13395
1739651259.850727,-7388,-4636,3100,-10672,-27734,14369
1739651259.850727,-7256,-4864,3180,-10522,-27214,15343
1739651259.85176,-7016,-4952,3040,-10408,-26656,16346
1739651259.852865,-6716,-5128,2636,-10292,-26172,17479
1739651259.8537657,-6464,-5432,2436,-10097,-25670,18733
1739651259.8547683,-6376,-5824,2116,-9884,-25221,20083
1739651259.8547683,-6236,-5916,2236,-9665,-24608,21427
1739651259.8559434,-6232,-6080,2036,-9494,-24009,22816
1739651259.8569498,-6496,-6392,2076,-9372,-23469,24085
1739651259.858,-6604,-6776,1524,-9151,-22930,25483
1739651259.8983545,-6804,-7408,876,-8894,-22755,26814
1739651259.8993042,-6872,-8228,456,-8539,-22906,28127
1739651259.8993042,-7228,-8984,512,-8216,-23017,29394
1739651259.9005578,-7372,-9108,356,-7695,-23488,30703
1739651259.9017062,-7452,-9288,284,-7280,-24187,31848
1739651259.9017062,-6608,-9344,-168,-6701,-24714,32767
1739651259.9032044,-5952,-10088,-1228,-5845,-24955,32767
1739651259.9042866,-8712,-7648,508,-5422,-24056,32767
1739651259.9052134,-10424,-7616,1360,-5587,-23807,32767
1739651259.9595037,-9924,-8884,1428,-5708,-23592,32767
1739651259.9595037,-8092,-9620,1148,-5753,-22861,32767
1739651259.9595037,-6140,-9492,876,-5790,-21796,32767
1739651259.9608817,-5032,-9084,424,-5723,-20688,32767
1739651259.9618897,-4392,-9340,440,-5611,-19856,32767
1739651259.9618897,-3456,-8920,556,-5649,-18755,32767
1739651259.9628894,-2404,-7912,656,-5855,-17030,32767
1739651259.963891,-1416,-7204,528,-6301,-15171,32559
1739651260.019131,-1256,-5876,744,-7248,-14057,31564
1739651260.019131,-12,-5020,936,-8231,-12201,30444
1739651260.019131,-32,-4300,1124,-9469,-10247,29222
1739651260.0205116,820,-4172,1016,-10818,-8757,27851
1739651260.0215187,872,-3712,904,-12224,-6997,26367
1739651260.0215187,1120,-3080,572,-13603,-5335,24908
1739651260.0229917,1328,-2648,852,-15117,-3677,23431
1739651260.0796127,1652,-2640,836,-16651,-1891,22118
1739651260.0796127,1656,-2608,656,-18042,59,20890
1739651260.0796127,1288,-2408,552,-19441,1670,19711
1739651260.0810745,1200,-2444,712,-20720,3512,18541
1739651260.0810745,1072,-2232,396,-21891,5285,17410
1739651260.0822766,1344,-2124,124,-22872,7204,16368
1739651260.0827827,1144,-1832,-4,-23787,9003,15444
1739651260.0837924,880,-1764,168,-24628,10607,14635
1739651260.0847907,572,-1736,456,-25486,11988,13911
1739651260.0847907,268,-1732,504,-26324,13331,13289
1739651260.0857985,-88,-1824,652,-27090,14526,12813
1739651260.0868042,-356,-1952,920,-27788,15488,12396
1739651260.0878034,-284,-2272,860,-28385,16434,12147
1739651260.0878034,-216,-2824,948,-28878,17327,12090
1739651260.0898697,60,-3024,760,-29371,18050,12159
1739651260.0898697,320,-3324,660,-29651,19043,12222
1739651260.0908046,616,-3484,552,-29848,19819,12326
1739651260.0918286,1212,-3860,660,-29944,20593,12440
1739651260.0918286,1780,-4084,484,-30041,21442,12556
1739651260.092804,2328,-4516,956,-30070,22270,12725
1739651260.093848,2912,-4872,1124,-30074,23123,12908
1739651260.094806,3532,-5164,1208,-30055,23853,13052
1739651260.094806,3840,-5624,1356,-29971,24399,13188
1739651260.0969057,8072,-16700,-1644,12776,-1495,7757
1739651260.0969057,7356,-17944,-1520,14273,-2332,6807
1739651260.0978045,7292,-19136,-1164,15642,-3431,5427
1739651260.0988035,6924,-20424,-1124,16775,-4774,3613
1739651260.0988035,6916,-21848,-1956,18024,-6479,1480
1739651260.100806,6816,-23028,-3316,19361,-7894,-867
1739651260.1388197,6424,-24260,-4876,20810,-9380,-3322
1739651260.1398225,5224,-25160,-5880,22230,-11187,-5919
1739651260.1398225,5324,-25760,-5972,23336,-12714,-8356
1739651260.1410923,5200,-26204,-6304,24044,-14191,-10582
1739651260.1993783,4456,-25924,-6504,24554,-14763,-12380
1739651260.1993783,3316,-25564,-6312,24734,-15999,-13983
1739651260.2003765,2324,-25224,-6564,24535,-16691,-15507
1739651260.2003765,1680,-25080,-6676,24099,-17407,-16524
1739651260.2013752,1364,-25168,-6760,23346,-17533,-16991
1739651260.20238,308,-25248,-6888,22357,-16918,-17152
1739651260.203389,-640,-25360,-7088,21189,-15655,-17029
1739651260.2044115,-1332,-25372,-7744,19866,-13717,-16638
1739651260.2044115,-1888,-25424,-8560,18589,-11011,-16113
1739651260.2583468,-2704,-25652,-9556,17334,-7487,-15483
1739651260.2595778,-1040,-25504,-8212,15638,-2883,-14107
1739651260.3190112,-1676,-25876,-7568,12991,810,-12208
1739651260.3190112,-3696,-24352,-8168,10288,3410,-10895
1739651260.3190112,-5300,-23288,-9476,7736,7049,-10202
1739651260.3788917,-7360,-23056,-12232,5956,10771,-10204
1739651260.4384997,-8484,-23028,-14520,4775,13566,-10482
1739651260.4384997,-8788,-23164,-16828,4245,16140,-11026
1739651260.440019,-8856,-23372,-18724,4226,18272,-11580
1739651260.4410226,-8580,-23524,-20224,4543,19492,-12104
1739651260.4410226,-8256,-23720,-20832,5085,20288,-12706
1739651260.4420235,-7624,-24736,-20820,5780,20690,-13305
1739651260.4430234,-8132,-25344,-20292,6202,18955,-14279
1739651260.4430234,-7284,-26472,-19544,6536,16744,-15468
1739651260.4445274,-6296,-27600,-18524,6598,13667,-16485
1739651260.4456189,-4808,-28956,-16956,6339,10496,-17142
1739651260.4466255,-4404,-29940,-14856,5643,6517,-17336
1739651260.4466255,-4384,-30228,-13508,4724,3590,-17420
1739651260.499098,-5448,-29552,-12696,3717,1309,-17324
1739651260.499098,-7604,-28576,-13004,2968,-158,-17206
1739651260.500366,-9840,-28280,-13736,2495,-1129,-16837
1739651260.500366,-2108,-21440,-15768,662,26202,-539
1739651260.501375,-1692,-20996,-14028,790,24308,-1300
1739651260.502374,-1232,-20580,-12024,591,21587,-2387
1739651260.503371,-700,-20712,-9948,198,18374,-3847
1739651260.503371,-192,-20824,-8968,-230,15388,-5666
1739651260.5053728,-276,-20620,-8168,-654,12268,-7670
1739651260.5053728,-1464,-20760,-8288,-902,8959,-10060
1739651260.5064354,-2560,-20736,-8348,-893,5988,-12703
1739651260.5064354,-3212,-21736,-8604,-637,3546,-15304
1739651260.5076792,-3504,-22580,-8280,-298,1617,-17405
1739651260.5090392,-4284,-23124,-8140,237,-34,-19112
1739651260.5100925,3756,-31544,-4264,29958,32767,-32768
1739651260.5100925,4096,-31664,-4392,30840,32637,-32768
1739651260.511173,4136,-32344,-5452,31435,31665,-32768
1739651260.5120482,4504,-32764,-6956,31523,29805,-32768
1739651260.5130844,4828,-32768,-8960,31356,28226,-32768
1739651260.5130844,4840,-32768,-10520,30950,27135,-32768
1739651260.514043,3892,-32768,-12760,30474,26057,-32768
1739651260.51521,3216,-32768,-14208,29875,25465,-32768
1739651260.5162573,3388,-32768,-15884,29234,25413,-32768
1739651260.5172632,3372,-32768,-16900,28569,25347,-32768
1739651260.5172632,2896,-32768,-17832,27570,24573,-32768
1739651260.5182185,3440,-32768,-18280,26390,24145,-32768
1739651260.5193493,3656,-32768,-19328,25225,24091,-32277
1739651260.520219,2956,-32768,-20344,24109,23341,-31637
1739651260.5212564,2128,-32768,-21224,23101,22766,-31170
1739651260.5222309,2104,-32768,-22220,22269,23256,-30674
1739651260.5222309,2412,-32768,-23052,21664,24293,-30154
1739651260.5233436,4204,-32768,-23012,17412,31141,-27107
1739651260.5242138,5000,-32768,-23148,16509,32767,-26886
1739651260.525215,5768,-32768,-23100,15557,32767,-26682
1739651260.525215,5980,-32768,-23056,15020,32767,-26501
1739651260.527217,6028,-32768,-22856,14401,32767,-26291
1739651260.5586476,6496,-32768,-22768,13769,32767,-26037
1739651260.5596535,7040,-32768,-22216,12896,32767,-25732
1739651260.5596535,7088,-32768,-21732,11840,32767,-25592
1739651260.5607276,7552,-32768,-21840,10845,32767,-25607
1739651260.5616448,8104,-32768,-21648,9965,32767,-25580
1739651260.562649,8552,-32768,-22072,9182,32767,-25559
1739651260.562649,9076,-32768,-22308,8652,32767,-25421
1739651260.5636454,9388,-32768,-22472,8412,32767,-25298
1739651260.5648289,9644,-32276,-22008,8320,32767,-25259
1739651260.5658338,9628,-31500,-21880,8164,32767,-25365
1739651260.5658338,9796,-30832,-21164,7909,32767,-25480
1739651260.5668337,9920,-29828,-20756,7630,32767,-25680
1739651260.5678337,10128,-29192,-20620,7403,32767,-25740
1739651260.5689182,9788,-29276,-20160,7377,32767,-25606
1739651260.6183743,9532,-29776,-19760,7476,32000,-25391
1739651260.6196196,10012,-29708,-19032,7464,30830,-25185
1739651260.6196196,10720,-29772,-18136,7573,30668,-25072
1739651260.6206243,10304,-29772,-17476,7365,29855,-24876
1739651260.6217768,10108,-29032,-16788,6939,29218,-24879
1739651260.6226285,10232,-28328,-16564,6403,28562,-24890
1739651260.623627,9880,-27948,-16772,5876,27763,-24734
1739651260.623627,9544,-28364,-16612,5561,27859,-24434
1739651260.6246288,8568,-29264,-16436,5355,27684,-23988
1739651260.625762,8436,-30520,-16192,5362,27412,-23411
1739651260.6268845,8992,-30996,-15864,5376,27044,-22478
1739651260.6268845,9204,-31168,-15628,5343,26080,-21571
1739651260.6278942,9368,-30796,-15212,5176,25070,-20527
1739651260.6288893,8776,-30040,-15060,4848,23914,-19481
1739651260.6298957,8024,-29892,-15136,4470,22928,-18473
1739651260.6309016,8108,-30140,-15524,4161,22436,-17420
1739651260.6309016,8412,-30924,-15732,4040,22029,-16329
1739651260.6318939,8964,-32108,-16100,4077,21291,-15131
1739651260.632966,9968,-32568,-16508,4221,20409,-13924
1739651260.633975,10896,-32216,-16588,4363,19219,-12735
1739651260.633975,11252,-31512,-16692,4374,18188,-11724
1739651260.6353037,11372,-30336,-16608,4257,17112,-10844
1739651260.6786377,11440,-29364,-16820,4129,16161,-10160
1739651260.6786377,11384,-28956,-17000,4043,15237,-9597
1739651260.679876,11564,-28696,-17440,4040,14386,-9096
1739651260.6808836,12132,-27776,-17740,4043,13883,-8531
1739651260.6818817,12696,-26556,-17884,3974,13548,-7954
1739651260.6818817,12796,-25164,-17752,3763,13273,-7292
1739651260.6828814,12356,-23712,-17492,3357,12992,-6647
1739651260.6842113,11704,-22888,-17516,2919,12821,-5911
1739651260.6852407,11024,-22688,-17108,2591,12677,-5121
1739651260.6852407,10540,-22780,-16764,2048,12709,-4097
1739651260.686216,10328,-23152,-16504,1614,12955,-3005
1739651260.6872144,10084,-23724,-16328,1405,13270,-1967
1739651260.687718,10008,-24252,-16276,1527,13569,-1044
1739651260.6888573,10388,-24192,-16040,1804,13548,-182
1739651260.6897237,10828,-24296,-16180,2175,13348,740
1739651260.6907275,11500,-24532,-16104,2351,12752,1799
1739651260.6907275,12008,-24756,-16120,2449,11806,2776
1739651260.6929662,12724,-24572,-15720,2333,10813,3770
1739651260.6940084,13584,-24584,-16132,2139,10039,4693
1739651260.6949685,14372,-24908,-16588,2085,9118,5416
1739651260.798722,15404,-24940,-17132,2106,8415,6038
1739651260.800094,16116,-24876,-17824,2189,7773,6592
1739651260.800094,16760,-24760,-18392,2327,7385,7022
1739651260.8011072,16912,-24624,-18836,2381,7096,7379
1739651260.8021417,16784,-23744,-18792,2229,6730,7680
1739651260.8590684,16492,-22652,-18996,2023,6581,7937
1739651260.8590684,15772,-22128,-19004,1800,6448,8208
1739651260.860274,15096,-22048,-19128,1550,6036,8529
1739651260.861284,14444,-22360,-19092,1334,5731,8984
1739651260.861284,13588,-22780,-19120,1102,4790,9397
1739651260.8622813,12992,-22952,-19416,642,4013,9701
1739651260.863282,12804,-22900,-19432,97,3349,9980
1739651260.863282,12436,-22604,-19908,-516,2392,10311
1739651260.864696,12248,-22620,-20008,-1300,1034,10763
1739651260.8657079,12664,-22772,-20348,-2154,-349,11489
1739651260.8657079,12876,-23808,-20628,-2891,-1034,13020
1739651260.8667023,12960,-24704,-20516,-4102,-1996,14817
1739651260.8677018,14180,-25628,-20840,-5629,-2859,16829
1739651260.8689318,14984,-25724,-21760,-7240,-3774,19149
1739651260.8699386,10864,-22720,-22812,-8782,-4812,20429
1739651260.8699386,10048,-22896,-22480,-10780,-5450,21191
1739651260.8709388,8136,-22264,-22664,-13025,-6350,21292
1739651260.8719416,8376,-23364,-22544,-15571,-7291,21550
1739651260.8729372,7100,-22924,-23520,-17735,-8590,21263
1739651260.8739707,6804,-23024,-24436,-19576,-9803,20812
1739651260.8739707,8048,-23776,-24844,-21114,-10625,20488
1739651260.8759718,9060,-23924,-26016,-22179,-11858,20430
1739651260.8759718,10764,-24212,-26588,-22676,-12760,20656
1739651260.8770187,12096,-24172,-26656,-22784,-13445,21182
1739651260.8779387,13004,-23724,-26036,-22657,-13963,21915
1739651260.878937,8120,3896,-5180,-5522,-32768,30038
1739651260.878937,7084,4428,-5372,-4316,-32768,29963
1739651260.879939,6904,4560,-6012,-2624,-32768,29898
1739651260.880936,6028,4972,-5160,-997,-32768,29775
1739651260.881936,5284,5632,-3516,402,-32768,29548
1739651260.8829393,4036,6456,-904,1093,-32768,29055
1739651260.9180188,3056,7292,280,1048,-32768,28484
1739651260.9190173,2624,8124,456,1133,-32768,27706
1739651260.920014,2464,8812,-300,1359,-32768,27015
1739651260.921012,1788,10032,-1220,1677,-32768,26385
1739651260.922091,876,11100,-1736,2230,-32768,25677
1739651260.922091,-460,11836,-2048,2910,-32768,24923
1739651260.9231048,-1824,12472,-1260,3317,-32768,23873
1739651260.9240162,-3108,12764,-124,3410,-32768,22666
1739651260.9250147,-4028,13072,924,3079,-32768,21370
1739651260.9250147,-4468,13320,1520,2610,-32768,20070
1739651260.9260893,-4892,13288,1724,2115,-32768,18843
1739651260.9270163,-5180,13104,1756,1753,-32768,17659
1739651260.928014,-5252,12652,1668,1643,-32768,16582
1739651260.928014,-5748,12336,1828,1558,-32768,15490
1739651260.929135,-6172,12440,2328,1433,-32768,14380
1739651260.930256,-5908,12388,2620,1289,-32768,13429
1739651260.9785671,-5592,11984,2992,1143,-32768,12659
1739651260.9785671,-5580,12136,3200,880,-32768,11947
1739651260.9798489,-6004,12044,3596,648,-32768,11353
1739651260.9808547,-6136,11812,3680,517,-32768,10651
1739651260.9808547,-5516,11016,3384,529,-32768,10236
1739651260.9823263,-5668,10752,3156,606,-32768,9883
1739651260.9823263,-5212,10428,3036,909,-32768,9457
1739651260.9843817,-4792,10256,3264,1191,-32768,9070
1739651260.9843817,-5036,10624,3544,1496,-32768,8612
1739651260.985485,-5604,10944,3868,1568,-32768,8227
1739651260.9863343,-6188,11316,3824,1722,-32768,7771
1739651260.987385,-6932,11344,3692,1990,-32768,7129
1739651260.987385,-6488,11312,3940,2229,-32768,6645
1739651260.9883344,-6180,11076,3852,2435,-32768,6365
1739651260.989356,-5980,11020,3768,2657,-32768,6012
1739651260.989356,-6092,10788,3816,2859,-32334,5748
1739651260.9914615,-6276,10700,3704,2974,-31564,5350
1739651260.9914615,-6456,10588,3512,3012,-31026,4914
1739651260.9925663,-6412,10440,3316,3024,-30380,4479
1739651260.9934986,-6584,10236,3124,2965,-29808,4074
1739651260.9945462,-6444,10064,3036,2895,-29055,3737
1739651261.0387642,-6316,9660,2824,2755,-28217,3461
1739651261.0387642,-6220,9376,2748,2575,-27270,3328
1739651261.0401545,-6324,9100,2548,2356,-26345,3190
1739651261.0404534,-6412,8760,2408,2007,-25395,3177
1739651261.0414598,-6332,8660,2460,1649,-24272,3120
1739651261.042498,-6148,8380,2184,1321,-23160,3208
1739651261.042498,-6016,8224,2272,968,-22193,3300
1739651261.0438883,-5840,7876,2260,594,-21055,3457
1739651261.0450332,-5432,7320,2068,274,-20032,3685
1739651261.0450332,-5336,6908,2168,121,-19044,3890
1739651261.046093,-5012,6268,2152,34,-18205,4087
1739651261.047042,-4724,5708,2152,49,-17470,4325
1739651261.047042,-4284,5216,2184,71,-16688,4527
1739651261.0480418,-3832,4892,2304,126,-15881,4758
1739651261.0490444,-3608,4440,2232,210,-15123,4975
1739651261.0500886,-3344,3864,2136,287,-14353,5203
1739651261.0500886,-3272,3072,2076,368,-13592,5387
1739651261.0510428,-3112,2444,2276,500,-12768,5591
1739651261.052284,-3040,1656,2072,538,-11918,5796
1739651261.0532894,-3092,1052,2184,557,-11104,6125
1739651261.0994387,-3396,224,2108,555,-10407,6456
1739651261.0994387,-3620,-696,1948,555,-9855,6837
1739651261.0994387,-3948,-1316,1876,476,-9531,7284
1739651261.1005263,-4372,-2056,1896,375,-9325,7789
1739651261.1010323,-5288,-3112,1588,85,-9548,8501
1739651261.1020408,-6004,-4132,2016,-463,-9611,9375
1739651261.1030734,-6808,-5320,2012,-1217,-9793,10475
1739651261.104079,-7568,-6620,1976,-2020,-10092,12002
1739651261.1050797,-8516,-7988,1988,-2974,-10312,13707
1739651261.1050797,-9736,-9248,1704,-3995,-11073,15664
1739651261.106337,-10488,-10240,1468,-5041,-11510,17881
1739651261.1073856,-11140,-11668,680,-5938,-12124,20318
1739651261.1586466,-11996,-13300,448,-6693,-12328,23152
1739651261.1596518,-13304,-14868,524,-7418,-12515,26159
1739651261.1596518,-13324,-16024,-384,-7584,-12878,29914
1739651261.1608794,-10288,-18872,-5168,-5823,-13074,32767
1739651261.161934,-12740,-19200,-5264,-4212,-12118,32767
1739651261.1629317,-17232,-18176,-1240,-3896,-11605,32767
1739651261.1629317,-20232,-16944,2696,-4766,-11521,32767
1739651261.163886,-21236,-16368,5176,-6255,-11106,32767
1739651261.1649806,-20264,-17296,5068,-7602,-10743,32767
1739651261.1658897,-18912,-18132,4952,-8825,-9830,32767
1739651261.166889,-16440,-18528,4292,-9891,-8893,32767
1739651261.166889,-13924,-18440,3320,-10808,-7873,32767
1739651261.1679103,-13280,-19412,2108,-11095,-7269,32767
1739651261.1688855,-12508,-18400,1584,-10906,-7114,32767
1739651261.1699877,-10652,-18492,2112,-11011,-6551,32767
1739651261.1699877,-10428,-19540,1644,-10987,-6969,32767
1739651261.1718876,-10512,-20788,1948,-11528,-7388,32767
1739651261.1718876,-11400,-21904,2592,-12115,-7551,32767
1739651261.1728854,-11424,-24172,2836,-12211,-6024,32767
1739651261.1739807,-12748,-25756,3360,-12508,-5758,32767
1739651261.1748877,-12872,-27604,3344,-12502,-6762,32767
1739651261.1758852,-13192,-28704,704,-10100,-9908,32767
1739651261.1758852,-13244,-31108,5356,-10806,-13350,32767
1739651261.1772993,-12140,-31964,6904,-12867,-15176,32767
1739651261.1772993,-11536,-32200,6164,-14021,-18239,32767
1739651261.1787982,-9860,-32768,5416,-14593,-20732,32767
1739651261.1799033,-8960,-32768,4000,-14135,-22518,32767
1739651261.1799033,-8472,-32768,2956,-13002,-24155,32767
1739651261.180803,-6592,-32768,2944,-11559,-25422,32767
1739651261.1818054,-6096,-32768,2784,-9746,-27160,32767
1739651261.1828055,-4184,-32768,1548,-7230,-28242,32767
1739651261.2188926,188,-32768,308,-4400,-28970,32767
1739651261.2188926,4064,-32768,-1568,-957,-27397,32767
1739651261.2198884,6816,-32768,-884,1899,-25345,32767
1739651261.2210088,7076,-32768,1476,3203,-23147,32767
1739651261.2210088,5456,-32304,2712,3080,-20818,32767
1739651261.2220159,4352,-29488,2644,2232,-18707,32767
1739651261.2230663,3920,-28276,1012,1174,-16397,32767
1739651261.2240436,3624,-27248,-2448,192,-14183,32767
1739651261.2250147,3912,-25836,-4328,-363,-11889,32767
1739651261.2250147,3256,-24388,-4056,-879,-9380,32767
1739651261.2260156,2216,-23088,-3584,-1748,-7123,29343
1739651261.2272558,1336,-22392,-4304,-2605,-3930,23482
1739651261.2282662,676,-22236,-5392,-2958,-332,18218
1739651261.2282662,-588,-21484,-5768,-3263,3102,13466
1739651261.229413,-1488,-20828,-6484,-3475,7257,9308
1739651261.2305083,-2860,-20156,-6768,-3470,11070,5660
1739651261.2791731,-4400,-19504,-6508,-3213,14977,2625
1739651261.2791731,-6096,-18836,-6380,-3075,18427,-179
1739651261.2791731,-7772,-18308,-5872,-2604,21993,-2649
1739651261.2804322,-9160,-17720,-5516,-2213,25104,-4659
1739651261.2814395,-10300,-17456,-5788,-1424,27933,-6258
1739651261.2824984,-11232,-17408,-5780,-773,30457,-7460
1739651261.283439,-12544,-17808,-6076,-41,32287,-8304
1739651261.283439,-13364,-18236,-5984,705,32767,-8776
1739651261.2846212,-14740,-18088,-5632,1203,32767,-9045
1739651261.2857862,-16076,-18168,-5880,1662,32767,-9403
1739651261.2867913,-17348,-17844,-6008,1956,32767,-9856
1739651261.2877922,-17920,-17836,-6248,2354,32767,-10148
1739651261.2877922,-19188,-17704,-6176,2704,32346,-10590
1739651261.2891722,-19852,-17900,-5932,3128,31212,-10984
1739651261.2891722,-20684,-18572,-6296,3565,29373,-11176
1739651261.290179,-21396,-19684,-7268,4475,27525,-11352
1739651261.291301,-21920,-19872,-8080,5542,24843,-11451
1739651261.2921803,-21936,-19088,-8400,6466,22124,-11504
1739651261.2931788,-22012,-18008,-8280,7018,19294,-11812
1739651261.2931788,-22204,-16868,-8108,7099,16433,-11958
1739651261.2946262,-22288,-16204,-8092,6796,13461,-11986
1739651261.3392878,-22648,-15856,-8148,6345,10517,-12168
1739651261.3392878,-22792,-15416,-8548,5968,7629,-12007
1739651261.3402865,-23056,-14840,-8544,5534,4928,-11696
1739651261.3402865,-23344,-14048,-8048,5015,2597,-11451
1739651261.3422859,-23552,-13384,-7732,4385,744,-11112
1739651261.3422859,-23552,-13020,-7364,3753,-859,-10756
1739651261.34339,-23328,-12996,-7324,3280,-2091,-10426
1739651261.34339,-23248,-12980,-6984,2932,-3224,-10126
1739651261.3447664,-23124,-12988,-6852,2716,-4099,-9842
1739651261.3458276,-23020,-13012,-6548,2568,-5019,-9676
1739651261.3458276,-23088,-12900,-6560,2341,-5748,-9610
1739651261.3468347,-22828,-12456,-6180,2066,-6083,-9479
1739651261.3478332,-23040,-12376,-6456,1774,-6435,-9358
1739651261.3488362,-23196,-12376,-6140,1430,-6361,-9286
1739651261.3500643,-23484,-12248,-5924,1056,-6196,-9124
1739651261.350232,-23512,-12184,-5748,531,-5643,-8881
1739651261.3512383,-24076,-12180,-5592,-7,-4998,-8660
1739651261.3522418,-24444,-12284,-5436,-747,-4404,-8421
1739651261.3522418,-24808,-12128,-5156,-1396,-3708,-8087
1739651261.3537743,-24604,-11864,-4832,-2068,-2406,-7731
1739651261.3989887,-25040,-11560,-4480,-2682,-1455,-7288
1739651261.3989887,-25256,-11536,-4116,-3203,-113,-6769
1739651261.4003217,-25556,-11480,-3952,-3592,1149,-6120
1739651261.4003217,-25476,-11384,-3672,-3872,2623,-5339
1739651261.4017138,-25524,-11152,-3324,-3997,4095,-4438
1739651261.4017138,-25368,-10908,-2916,-4007,5656,-3394
1739651261.403758,-24724,-10300,-2904,-3918,7284,-2173
1739651261.403758,-24668,-9728,-2664,-3736,8946,-861
1739651261.4047196,-24272,-9080,-2040,-3468,10359,453
1739651261.4057205,-23912,-8844,-1472,-3199,11685,1671
1739651261.4067204,-23164,-8788,-940,-2920,12727,2717
1739651261.4067204,-22456,-8732,-1044,-2550,13351,3604
1739651261.4078312,-21832,-8504,-1360,-833,12802,4605
1739651261.40886,-20828,-9200,496,-1609,13028,5337
1739651261.40886,-20664,-9064,-704,-1759,13235,5191
1739651261.4103713,-19276,-8392,-1472,-1294,13324,4790
1739651261.4103713,-18268,-8584,-1392,-778,13169,4825
1739651261.41169,-17960,-8084,-932,-416,12809,4672
1739651261.4127936,-17736,-7476,-240,-278,12090,4401
1739651261.4136941,-17268,-7504,440,-430,11500,4002
1739651261.4590075,-17712,-7216,-664,-515,10554,3390
1739651261.4590075,-17712,-7432,-1780,-264,9534,2591
1739651261.4600065,-17328,-7588,-2148,73,8539,1840
1739651261.4610424,-17104,-7612,-2580,355,7400,1188
1739651261.4610424,-17152,-7416,-2452,555,6362,554
1739651261.4620056,-17132,-7308,-2844,771,5449,-28
1739651261.4630203,-17248,-7224,-3004,931,4862,-488
1739651261.464004,-17428,-7076,-3048,1007,4552,-892
1739651261.4650054,-17600,-7200,-3288,1002,4459,-1218
1739651261.4650054,-17464,-7044,-3556,986,4712,-1399
1739651261.4660144,-17600,-7200,-4152,847,5181,-1477
1739651261.4670064,-17564,-6924,-4296,684,5743,-1435
1739651261.4670064,-17824,-6712,-4780,456,6307,-1208
1739651261.4683642,-18036,-6324,-5072,122,6956,-898
1739651261.469371,-17780,-6236,-5196,-265,7769,-432
1739651261.469371,-17712,-6228,-5168,-625,8774,237
1739651261.4704611,-17496,-6332,-5444,-941,9924,986
1739651261.4715438,-17212,-6128,-5108,-1158,11356,1916
1739651261.4725058,-17016,-5880,-5284,-1424,12721,2840
1739651261.4735594,-16520,-5276,-5184,-1550,13992,3755
1739651261.5186484,-15928,-4900,-4648,-1732,15202,4584
1739651261.5196948,-15536,-4728,-4060,-1977,15987,5170
1739651261.520635,-14800,-4820,-3304,-2221,16575,5652
1739651261.520635,-13980,-5060,-3424,-2438,16952,5971
1739651261.52163,-13396,-5124,-3444,-2514,17020,6182
1739651261.5226316,-12548,-5260,-3740,-2511,16905,6282
1739651261.5788345,-11996,-5228,-4192,-2380,16517,6309
1739651261.5798216,-11640,-5268,-4164,-2182,15927,6102
1739651261.5808196,-11176,-5036,-4460,-1960,15093,6073
1739651261.5808196,-11016,-4788,-4484,-1885,14470,5831
1739651261.58187,-10544,-4672,-4376,-2165,14170,5234
1739651261.5828247,-10172,-4688,-4556,-2530,13761,4495
1739651261.5828247,-9884,-4960,-5452,-2651,13142,3845
1739651261.5838242,-10036,-5692,-6100,-2521,12299,3348
1739651261.5848763,-10036,-5900,-6780,-2336,11464,2818
1739651261.5858705,-9032,-5852,-7192,-2078,11276,2259
1739651261.586824,-8008,-5728,-8120,-2014,11944,1939
1739651261.586824,-8716,-5176,-8048,-1565,11330,2097
1739651261.5878203,-9284,-4748,-7580,-1235,11203,1880
1739651261.588818,-8992,-4700,-7228,-1251,11460,1744
1739651261.5899107,-10084,-7080,-10236,-142,10448,2171
1739651261.5899107,-11904,-13768,-12864,7749,3221,5057
1739651261.5908217,-17464,-14524,-5864,7520,5228,470
1739651261.591885,-19036,-20144,-3272,4455,7316,-9057
1739651261.5928192,-10068,-8444,-1640,862,10074,-11057
1739651261.5938187,-3264,4636,-408,-1243,12869,-9464
1739651261.5938187,420,9016,784,-2012,13520,-7639
1739651261.5948188,1492,6524,-564,-2288,12999,-5099
1739651261.5959115,-240,1172,-3408,-2024,12657,-2119
