Timestamp,Accel_X,Accel_Y,Accel_Z,Gyro_X,Gyro_Y,Gyro_Z
1739652292.6915147,3976,-6084,15144,-619,348,302
1739652292.6915147,3884,-5936,15124,-555,281,283
1739652292.692515,4008,-6020,15196,-486,227,245
1739652292.692515,4048,-6044,15212,-402,169,246
1739652292.7059324,4140,-5980,15100,-309,223,215
1739652292.7059324,3968,-5980,15388,-257,239,181
1739652292.706887,4072,-6140,15472,-191,307,148
1739652292.7078881,4004,-6004,15624,-109,246,112
1739652292.7089748,3968,-5992,15720,-18,143,39
1739652292.7208872,4024,-5952,15648,17,154,-16
1739652292.7208872,4156,-5864,15896,-11,187,-65
1739652292.721888,4296,-5972,16032,-58,249,-75
1739652292.7229834,4364,-6060,16112,-174,345,-103
1739652292.723887,4252,-6048,16176,-278,381,-85
1739652292.7359946,4348,-6104,16040,-387,438,-49
1739652292.7359946,4292,-6200,16020,-486,477,11
1739652292.7368908,4364,-6336,15904,-543,498,47
1739652292.7378874,4200,-6272,15948,-576,533,63
1739652292.7388911,4348,-6332,15784,-529,562,102
1739652292.7509665,4344,-6176,15628,-494,670,91
1739652292.7509665,4308,-6136,15532,-438,754,97
1739652292.7519662,4144,-6156,15332,-377,764,78
1739652292.7519662,4080,-6084,15368,-265,690,87
1739652292.7531385,4132,-6004,15312,-225,675,71
1739652292.7654047,3984,-5980,15392,-165,522,48
1739652292.7662818,4156,-5948,15496,-113,515,29
1739652292.7673066,4212,-5912,15464,-186,624,16
1739652292.7673066,4084,-5812,15436,-151,685,1
1739652292.7692807,3992,-5844,15424,-111,650,-51
1739652292.7803996,3832,-5784,15456,-9,515,-96
1739652292.7812793,3812,-5732,15288,77,443,-144
1739652292.7823853,3908,-5868,15416,132,351,-216
1739652292.7832842,3928,-5736,15488,200,273,-226
1739652292.7832842,3960,-5804,15436,197,208,-236
1739652292.7954137,3960,-5792,15380,158,118,-282
1739652292.7962842,4076,-5880,15520,166,55,-296
1739652292.7972808,4088,-5984,15552,109,-46,-300
1739652292.7972808,4200,-6004,15732,49,-52,-304
1739652292.7982817,4104,-5912,15824,-55,-112,-265
1739652292.8109324,4140,-6004,15988,-128,-138,-233
1739652292.8109324,4148,-5920,16028,-216,-149,-191
1739652292.8119237,4148,-6072,16188,-244,-106,-195
1739652292.8131154,4012,-5972,16256,-307,-11,-234
1739652292.8131154,3916,-5964,16356,-320,42,-243
1739652292.8261886,3916,-5888,16516,-388,88,-367
1739652292.8261886,3660,-5860,16400,-419,38,-429
1739652292.8271873,3904,-5780,16420,-442,166,-464
1739652292.8281877,3984,-5952,16144,-438,275,-529
1739652292.8281877,3840,-5760,16036,-485,310,-564
1739652292.8411899,3896,-5832,16200,-525,368,-611
1739652292.8411899,3928,-5932,16164,-664,533,-628
1739652292.8553863,3920,-5904,15888,-751,738,-625
1739652292.8563366,3904,-5972,15660,-778,870,-661
1739652292.857607,3800,-6060,15612,-803,950,-705
1739652292.857607,3820,-6000,15300,-698,1007,-714
1739652292.8586714,3832,-6100,15348,-647,996,-741
1739652292.8595574,3756,-6052,15272,-584,1004,-742
1739652292.8595574,3784,-6124,15264,-514,992,-769
1739652292.8605585,3804,-6068,15220,-529,911,-775
1739652292.8615885,3728,-6100,15144,-555,816,-760
1739652292.8705964,3628,-6116,15108,-599,712,-767
1739652292.8705964,3604,-6280,15112,-582,574,-759
1739652292.8718493,3692,-6352,15076,-580,468,-752
1739652292.8729815,3800,-6300,14924,-563,365,-731
1739652292.8858583,3672,-6344,14968,-544,323,-707
1739652292.8858583,3748,-6328,14940,-502,285,-722
1739652292.8868566,3956,-6456,14888,-421,259,-720
1739652292.900859,3872,-6548,14992,-303,158,-737
1739652292.900859,3896,-6412,14908,-201,185,-742
1739652292.9019594,3908,-6520,15192,-142,158,-765
1739652292.9029653,3772,-6360,15204,-49,122,-747
1739652292.9029653,3924,-6436,15224,18,85,-788
1739652292.9042659,3936,-6352,15156,45,97,-781
1739652292.9042659,3908,-6360,15340,57,77,-806
1739652292.9064088,4060,-6404,15472,31,37,-816
1739652292.9156144,4208,-6432,15412,-14,83,-841
1739652292.9165342,4208,-6544,15456,-57,41,-808
1739652292.9175355,4144,-6720,15316,-50,9,-770
1739652292.9175355,4324,-6756,15332,-30,8,-750
1739652292.931002,4304,-6768,15392,19,23,-734
1739652292.931002,4268,-6864,15420,20,22,-721
1739652292.9319594,4232,-6716,15396,122,76,-714
1739652292.9329605,4328,-6620,15708,115,71,-695
1739652292.9339893,4404,-6620,15700,146,103,-711
1739652292.9461734,4220,-6560,15744,100,119,-713
1739652292.9461734,4208,-6556,15812,65,160,-723
1739652292.947072,4320,-6620,15824,9,219,-714
1739652292.9480703,4296,-6672,15908,-72,234,-727
1739652292.9492111,4472,-6672,15768,-140,247,-729
1739652292.9607995,4552,-6648,15788,-208,270,-745
1739652292.961801,4600,-6644,15744,-294,332,-745
1739652292.961801,4516,-6672,15772,-388,389,-712
1739652292.9627974,4500,-6684,15600,-455,427,-676
1739652292.963798,4532,-6696,15708,-485,433,-651
1739652292.9762497,4604,-6816,15428,-498,499,-630
1739652292.9762497,4636,-6824,15536,-457,567,-605
1739652292.9772513,4684,-6880,15384,-377,664,-591
1739652292.9782526,4784,-6888,15192,-333,747,-557
1739652292.9782526,4884,-6884,15360,-315,897,-521
1739652292.9906669,4932,-6784,15180,-307,1017,-463
1739652292.9906669,4908,-6800,15188,-364,1013,-428
1739652292.992142,4940,-6876,15620,-429,980,-368
1739652292.992142,4832,-6896,15484,-527,898,-374
1739652292.9933574,4796,-6968,15596,-655,737,-318
1739652293.0058084,4760,-7004,15396,-736,593,-290
1739652293.0058084,4864,-7004,15412,-753,305,-283
1739652293.0072834,4924,-7184,15220,-665,156,-321
1739652293.0072834,5184,-7116,15076,-569,226,-291
1739652293.0082877,5380,-7180,14912,-461,369,-283
1739652293.019811,5264,-7140,15144,-321,421,-258
1739652293.0212567,5328,-7324,15312,-175,396,-275
1739652293.0222638,5428,-7364,15912,-174,317,-248
1739652293.0222638,5552,-7260,16024,-236,247,-266
1739652293.0232623,5612,-7248,16220,-281,358,-310
1739652293.0353222,5704,-7388,16176,-323,414,-321
1739652293.0363219,5792,-7452,16092,-357,516,-329
1739652293.0375264,5884,-7572,15956,-408,669,-353
1739652293.0375264,6016,-7720,15896,-425,781,-360
1739652293.0389495,6136,-7864,15660,-346,770,-396
1739652293.0499573,6344,-8140,15648,-303,734,-436
1739652293.0509565,6536,-8188,15428,-193,619,-415
1739652293.0519576,6804,-8460,15332,-88,495,-416
1739652293.052958,7108,-8504,15280,-130,557,-401
1739652293.0539594,7448,-8624,15284,-298,852,-449
1739652293.0810173,7424,-9036,14904,-353,843,-363
1739652293.0810173,7668,-9240,14204,-427,849,-285
1739652293.0810173,7724,-9384,14004,-415,932,-170
1739652293.0824332,7956,-9504,13820,-396,760,-18
1739652293.0834386,8076,-9556,13656,-379,637,176
1739652293.0844429,8436,-9780,13400,-316,503,321
1739652293.0844429,8640,-9908,13376,-258,443,429
1739652293.0854373,8956,-10224,13156,-38,382,492
1739652293.086439,9124,-10224,12928,46,169,590
1739652293.0874386,9504,-10252,12692,82,78,675
1739652293.0874386,9864,-10472,12508,32,15,655
1739652293.0884383,10280,-11280,12744,203,152,279
1739652293.095438,10188,-11428,12624,257,206,5
1739652293.0964396,10228,-11296,11656,447,102,-53
1739652293.0974379,10716,-11324,11424,538,104,51
1739652293.125437,11088,-11532,10980,542,191,184
1739652293.1404245,11352,-11844,11136,576,147,462
1739652293.141425,11624,-11920,11164,458,164,796
1739652293.141425,11564,-12060,11212,346,210,1036
1739652293.142429,11660,-12544,11500,199,154,1332
1739652293.142429,11792,-12856,11252,88,-115,1484
1739652293.1438627,11744,-13192,11208,115,-171,1566
1739652293.1448681,12040,-13628,10940,69,-206,1655
1739652293.145886,12232,-13584,10800,30,9,1634
1739652293.145886,12192,-14096,10632,68,96,1740
1739652293.1468675,12392,-14036,10492,249,309,1857
1739652293.1478674,11784,-13880,10528,357,429,1788
1739652293.1489067,12328,-13996,10600,480,705,1845
1739652293.1498678,12088,-14584,10644,319,636,1890
1739652293.1498678,11748,-14592,10344,538,513,1808
1739652293.1508746,11976,-15044,10264,799,-148,1949
1739652293.1711395,11716,-14448,11032,722,-85,2013
1739652293.185528,13328,-15220,11728,774,2769,2851
1739652293.186422,10020,-14840,8872,145,419,2282
1739652293.1874242,13424,-16556,10344,663,-103,3855
1739652293.1884227,12108,-15300,12672,317,635,3776
1739652293.1884227,12968,-16080,13004,53,-144,3920
1739652293.1894653,13336,-16260,13896,-368,-192,4613
1739652293.1904216,13460,-16340,14100,-1142,30,5270
1739652293.1904216,13148,-16312,14344,-1812,412,5909
1739652293.191421,13168,-16584,14164,-2380,-261,6523
1739652293.192448,13452,-16516,14796,-2947,-394,7087
1739652293.193421,13380,-16788,14664,-3484,-661,7628
1739652293.193421,13744,-17120,15076,-4115,-964,8155
1739652293.1944199,14308,-17668,15680,-4739,-1252,8812
1739652293.1954193,14332,-17844,16504,-5341,-1401,9477
1739652293.196447,14100,-18388,17064,-5997,-1851,10202
1739652293.2004397,14292,-18772,17868,-6621,-2561,11108
1739652293.2015119,14584,-19328,18988,-7314,-3452,12160
1739652293.2025235,14512,-19456,20340,-8129,-3812,12952
1739652293.2166185,14524,-19424,22432,-9165,-4060,13684
1739652293.2166185,14804,-19528,24328,-10451,-4217,14580
1739652293.2166185,14980,-19656,25892,-11851,-4257,15743
1739652293.2189112,14196,-19568,27044,-13283,-4839,16884
1739652293.2189112,13684,-19336,28596,-14864,-5199,17908
1739652293.2309563,13084,-19120,30032,-16550,-5433,18864
1739652293.2318432,12656,-19148,31404,-18409,-5613,19693
1739652293.2328546,12140,-18904,32224,-20289,-5498,20363
1739652293.2328546,11592,-18868,32576,-22154,-5262,20935
1739652293.2348855,11088,-18320,32744,-23882,-4769,21397
1739652293.2460802,10736,-18132,32767,-25493,-4085,21733
1739652293.246953,10296,-18380,32344,-26798,-3386,22156
1739652293.246953,10076,-19064,31688,-27823,-2608,22611
1739652293.2479513,9420,-19360,30152,-28362,-1472,22769
1739652293.261223,8844,-19604,29192,-28658,-542,22883
1739652293.261223,8592,-20692,28440,-28848,442,23034
1739652293.2622573,8976,-22536,27728,-28838,934,23505
1739652293.263231,8048,-21140,27132,-29306,1712,23422
1739652293.263231,6380,-21576,25816,-29775,2515,23553
1739652293.2652235,6136,-23856,23244,-29655,3161,23731
1739652293.2652235,5996,-24156,21208,-29456,4096,23675
1739652293.276227,5920,-24836,20420,-29372,4477,24126
1739652293.276227,5516,-26060,19712,-29573,4430,24502
1739652293.2772264,6056,-27408,19196,-29863,4016,25277
1739652293.2783644,6336,-28720,18296,-30312,3461,26177
1739652293.2912223,7580,-30376,17628,-30843,3009,27445
1739652293.2912223,7416,-31692,16692,-31659,2172,28975
1739652293.2922697,9088,-32768,16228,-32335,1321,30831
1739652293.2932394,8996,-32768,16420,-32768,747,32767
1739652293.294223,6788,-32768,15360,-32768,-631,32767
1739652293.306319,7120,-32768,15072,-32768,-1426,32767
1739652293.306319,7060,-32768,14864,-32768,-1900,32767
1739652293.307243,6664,-32768,14460,-32768,-3121,32767
1739652293.3082237,5936,-32648,13896,-32768,-4223,32767
1739652293.3093402,5932,-32380,13384,-32768,-5078,32767
1739652293.3204858,6104,-31792,12864,-32768,-5773,32767
1739652293.3224883,6004,-31224,12356,-32768,-6357,32767
1739652293.3224883,5572,-30292,12076,-32768,-7037,32767
1739652293.3234868,5288,-29636,11868,-32768,-7767,32767
1739652293.3244855,5712,-29220,11848,-31249,-8297,32767
1739652293.3254836,6072,-28844,12272,-29575,-8472,32767
1739652293.3357828,5844,-28072,12328,-27914,-8735,32767
1739652293.3367007,5280,-27560,12428,-26089,-8932,32767
1739652293.3367007,5616,-27480,12332,-24376,-8830,32767
1739652293.3386962,5452,-26968,12300,-22746,-8983,32767
1739652293.3508677,5532,-26800,12276,-21159,-9198,32767
1739652293.3508677,5760,-26412,12144,-19797,-9475,32767
1739652293.3522418,5992,-25960,12176,-18539,-9724,32767
1739652293.3532505,6004,-25680,12352,-17517,-10073,32767
1739652293.3532505,5964,-25192,12472,-16779,-10779,32767
1739652293.3664982,5820,-24468,13100,-16330,-11470,32767
1739652293.3804426,6172,-24100,13516,-16142,-12089,32767
1739652293.4108262,6484,-23668,13932,-16234,-12519,32767
1739652293.4117284,6376,-23220,14072,-16495,-13082,32767
1739652293.4127662,6452,-22916,13916,-16696,-13647,32767
1739652293.4127662,6708,-22712,13860,-16829,-14418,32767
1739652293.4138453,6688,-22440,14320,-16905,-14943,32767
1739652293.4148533,6772,-22232,15064,-17098,-15418,32767
1739652293.4148533,6676,-21996,15796,-17348,-15851,32767
1739652293.4169188,6752,-21684,16780,-17602,-16177,32767
1739652293.4169188,6616,-21244,17572,-17758,-16490,32767
1739652293.417967,6908,-20952,18196,-17739,-16481,32767
1739652293.4188497,6868,-20292,18704,-17647,-16495,32767
1739652293.4198527,6724,-19708,19336,-17508,-16294,32767
1739652293.4208515,6656,-19068,19828,-17263,-15779,32767
1739652293.440987,6416,-18372,20704,-17112,-14921,32767
1739652293.440987,6016,-17976,21032,-16603,-14388,32767
1739652293.4419909,5560,-17016,21800,-16000,-13568,32767
1739652293.4429965,5296,-16480,22132,-15319,-12711,32767
1739652293.4439957,4948,-15380,22840,-14422,-11477,32767
1739652293.4449973,4516,-14720,23268,-13600,-10394,32767
1739652293.4449973,3948,-13508,24032,-13011,-9440,32767
1739652293.4469974,3348,-12208,24396,-12585,-8380,32767
1739652293.4469974,3056,-10816,24384,-12342,-7442,32767
1739652293.4479978,2680,-9648,24200,-12201,-6501,32767
1739652293.4479978,1900,-8388,23740,-11867,-5764,32767
1739652293.4500778,992,-7628,23724,-11473,-5019,32767
1739652293.4500778,224,-6664,23616,-11296,-4494,32767
1739652293.451126,-492,-5996,23648,-11392,-4016,32767
1739652293.4552474,-1332,-5344,23672,-11726,-3617,32767
1739652293.4562533,-2112,-4848,23816,-12258,-3331,32767
1739652293.4573522,-2528,-4260,23660,-12952,-3103,32767
1739652293.4573522,-2644,-4020,23464,-13560,-3051,32767
1739652293.4585848,-3024,-3848,23056,-13913,-3240,32767
1739652293.4597185,-3096,-3820,22888,-14124,-3549,32767
1739652293.4605854,-3116,-3844,22792,-14116,-3877,32767
1739652293.4707618,-2956,-4244,23060,-13918,-4154,32767
1739652293.4717715,-2748,-4396,23488,-13569,-4270,32767
1739652293.4727762,-2496,-4640,24416,-13203,-4512,32767
1739652293.4737763,-2548,-4640,24964,-12769,-4614,32767
1739652293.485962,-2456,-4624,25744,-12061,-4729,32767
1739652293.5009706,-2392,-4544,26440,-11207,-4716,32767
1739652293.5009706,-2540,-4532,27140,-10182,-4593,32767
1739652293.5029633,-2876,-4548,27844,-8969,-4362,32767
1739652293.5038497,-2964,-4636,28748,-7718,-3887,32767
1739652293.5038497,-2968,-4712,29336,-6432,-3199,32767
1739652293.5048473,-2720,-4768,30148,-5330,-2393,32767
1739652293.5048473,-2740,-4656,30800,-4331,-1452,32767
1739652293.5058515,-2852,-4664,31616,-3464,-459,32767
1739652293.5068514,-3344,-4556,32368,-2686,493,32767
1739652293.5078504,-3220,-4504,32767,-2407,1576,32767
1739652293.508944,-3072,-4476,32767,-2461,2601,32767
1739652293.5153275,-3016,-4524,32767,-2859,3610,32767
1739652293.5163212,-2924,-4928,32767,-3489,4530,32767
1739652293.517458,-3392,-4848,32767,-4194,5603,32767
1739652293.5309768,-3348,-5388,32767,-5027,6562,32767
1739652293.5309768,-3092,-5520,32767,-6009,7690,32767
1739652293.5320933,-2768,-5860,32767,-6834,8972,32767
1739652293.5330994,-2772,-5984,32767,-7512,9856,32767
1739652293.5341039,-2424,-6268,32767,-7956,10785,32767
1739652293.546433,-2080,-6720,32767,-7996,11737,32767
1739652293.546433,-2384,-6976,32767,-7781,12276,32767
1739652293.547553,-2260,-7124,32767,-7292,12828,32767
1739652293.5486364,-2116,-7208,32767,-6802,13473,32767
1739652293.5486364,-1800,-7192,32767,-6248,14478,32767
1739652293.6058419,-1444,-7392,32767,-5785,15078,32767
1739652293.6058419,-1136,-7068,31920,-5259,15598,32767
1739652293.6072905,-824,-6752,31200,-4559,15963,32767
1739652293.6072905,-548,-6312,30628,-3816,16340,32767
1739652293.6356895,72,-5940,29944,-3018,16812,32767
1739652293.636597,784,-5784,29144,-2159,17172,32767
1739652293.636597,1504,-5680,28292,-1138,17378,32767
1739652293.6379077,2092,-5440,27684,-30,17452,32767
1739652293.650638,2632,-5052,27208,1068,17546,32767
1739652293.6515148,3140,-4732,27072,2154,17648,32767
1739652293.6515148,3168,-4412,27436,2976,17728,32767
1739652293.6527524,2900,-4012,27516,3583,17769,32767
1739652293.653791,2524,-3584,27820,4023,18135,32767
1739652293.6548243,2460,-3332,28212,4259,18592,32767
1739652293.6558309,2784,-3160,28156,4445,19225,32496
1739652293.6569326,3128,-3204,27524,4692,19787,32235
1739652293.6578293,3320,-2960,27272,5020,20268,32064
1739652293.65901,3380,-2772,26656,5463,20697,31905
1739652293.666003,3416,-2816,26060,6039,21144,31788
1739652293.666003,3604,-2572,25304,6763,21667,31655
1739652293.6960022,3684,-2144,24632,7565,22106,31523
1739652293.7568288,3872,-1560,23988,8454,22507,31340
1739652293.771873,3788,-852,23304,9333,22838,31065
1739652293.7858775,3796,-96,22836,10095,23087,30771
1739652293.7868757,3764,712,21912,10900,23279,30408
1739652293.7883458,3488,1352,21388,11587,23542,30177
1739652293.7883458,3324,2220,20980,12269,23621,29586
1739652293.7883458,3836,2932,20088,12996,23902,29015
1739652293.7895625,3524,3412,19200,13787,24084,28514
1739652293.7895625,3360,3976,18508,14507,23879,27976
1739652293.7908125,4088,4768,18028,15184,24197,27311
1739652293.7908125,4428,5416,17796,15610,24316,26755
1739652293.792272,4604,5864,17312,15942,24439,26039
1739652293.7932787,4700,6368,16868,16048,24385,25283
1739652293.7944715,5172,6584,16652,16226,24407,24454
1739652293.7944715,5300,7164,16784,16027,24432,23679
1739652293.7954762,5540,7436,16832,15478,24572,22889
1739652293.7965171,5556,7752,16792,14899,24613,22136
1739652293.800611,5500,7944,17156,14218,24465,21446
1739652293.8014848,5616,8260,17040,13128,24353,20810
1739652293.8014848,5500,8240,16996,12014,24262,20325
1739652293.8034763,5268,8264,16524,11019,24090,19865
1739652293.8034763,5148,8208,16040,10362,23903,19462
1739652293.804476,5056,8376,15260,9913,23692,19057
1739652293.815683,4984,8340,14444,9786,23475,18603
1739652293.8306875,4944,8308,13568,10003,23175,18113
1739652293.8611312,4680,8316,12784,10515,22835,17545
1739652293.8771422,4600,8464,11864,11288,22449,16925
1739652293.9061806,4344,8656,11340,12366,22127,16206
1739652293.9061806,4040,8872,10764,13617,21623,15469
1739652293.9070868,3708,9240,10192,15062,21179,14545
1739652293.9080858,3448,9568,9768,16614,20670,13483
1739652293.9090898,18272,12424,15620,15148,32767,-25031
1739652293.910155,18956,12388,15256,15285,32767,-26462
1739652293.910155,19448,12324,15184,15222,32767,-27918
1739652293.9112191,20028,12268,15172,15039,32767,-29329
1739652293.9130871,20428,11996,15720,14665,32767,-30889
1739652293.9130871,21468,11804,15816,14135,32767,-32255
1739652293.914362,22364,11208,15812,13330,32767,-32768
1739652293.921372,23364,10572,15600,12487,32767,-32768
1739652293.9363682,24580,10148,15316,11434,32767,-32768
1739652293.9363682,26004,9452,14436,10418,32767,-32768
1739652293.950603,27576,8864,13712,9371,32767,-32768
1739652293.9516075,29336,8176,12604,8313,32767,-32768
1739652293.9516075,30952,6876,11168,7380,32767,-32768
1739652293.9536045,32476,5112,9780,6621,32767,-32768
1739652293.9536045,32767,2992,7380,6168,32767,-32768
1739652293.9550524,32767,784,4884,6061,32767,-32768
1739652293.9560754,32767,-804,2216,6836,32767,-32768
1739652293.957141,32767,-4140,-152,7035,32767,-32768
1739652293.9662588,32767,-6760,-3520,7769,32767,-32768
1739652293.9819922,32767,-7740,-7604,9332,32767,-32768
1739652293.9819922,32767,-10024,-10804,11146,32767,-32768
1739652293.9830039,32767,-12248,-14028,12845,32767,-32768
1739652293.9960008,32767,-13888,-17428,15006,32767,-32768
1739652293.9960008,32767,-15636,-20344,17495,32767,-32768
1739652293.9980946,32767,-17332,-21816,19604,32767,-32768
1739652293.9980946,32767,-18276,-23180,21607,32767,-32768
1739652293.9991,32767,-31120,-26116,-29466,31343,-23946
1739652294.000005,32767,-32424,-29532,-31982,30959,-21244
1739652294.0009995,32767,-32768,-32768,-32471,30927,-18129
1739652294.0009995,32767,-32768,-32768,-30657,32087,-15039
1739652294.0020008,32696,-32768,-32768,-27110,31012,-12290
1739652294.0029993,32767,-32768,-32768,-22299,31897,-9718
1739652294.0042045,23928,-32768,-32768,-16136,28389,-8875
1739652294.006048,24084,-32768,-32768,-10150,27402,-8260
1739652294.006048,23312,-32768,-32768,-3674,26644,-8464
1739652294.010207,21592,-32768,-32768,3069,25962,-8813
1739652294.0127323,19836,-32768,-32768,9090,24596,-9378
1739652294.0258434,18728,-32496,-32768,14431,23517,-10045
1739652294.026734,17856,-31964,-32768,18956,22744,-10765
1739652294.0568392,17296,-31616,-32768,22827,22403,-11582
1739652294.0856209,17036,-30940,-32768,26034,21888,-12196
1739652294.1014838,17544,-29676,-32768,28466,21375,-12393
1739652294.1014838,17636,-28288,-32768,29990,20798,-12171
1739652294.1024852,17780,-27324,-32768,30781,20244,-11758
1739652294.1034827,17584,-26200,-31820,30928,19564,-11137
1739652294.1034827,17496,-25384,-30132,30522,18810,-10481
1739652294.1309204,17524,-25048,-28496,29476,18251,-9804
1739652294.1319222,17344,-24704,-27084,27956,17781,-9022
1739652294.1319222,16584,-24152,-26148,26074,17313,-8181
1739652294.1329195,16060,-23640,-25604,24155,16997,-7333
1739652294.133918,15516,-22736,-25124,22237,16783,-6367
1739652294.1349504,14908,-22032,-24908,20267,16659,-5359
1739652294.1349504,14252,-21392,-24808,18203,16545,-4252
1739652294.1898959,11504,-19264,-25712,7806,16186,-342
1739652294.1918476,10940,-18756,-26784,5332,16074,401
1739652294.1918476,10384,-18328,-27660,3038,16003,1072
1739652294.1932597,9800,-18124,-28448,1189,16026,1473
1739652294.2503474,9204,-18124,-29472,-348,15657,1929
1739652294.431297,8956,-18064,-30168,-1764,15262,2108
1739652294.4919019,8664,-17988,-31216,-2539,14824,2199
1739652294.4925642,8220,-17972,-31988,-3078,14074,2365
1739652294.493075,8040,-17900,-32768,-3350,13385,2485
1739652294.493075,7852,-17980,-32768,-3247,12780,2676
1739652294.4944844,7608,-18208,-32768,-2720,12167,2814
1739652294.4944844,7408,-18312,-32768,-1977,11242,3031
1739652294.4954958,7536,-18108,-32768,-1047,10853,3342
1739652294.4963222,7648,-18080,-32768,262,10673,3553
1739652294.4973958,7052,-18520,-32768,2154,10353,3552
1739652294.4979491,7372,-18592,-32768,4464,9911,3587
1739652294.4985292,7448,-18436,-32768,7061,9386,3406
1739652294.499056,6428,-14412,-13952,-8755,11112,3653
1739652294.5000653,6472,-14864,-15404,-8931,11309,4051
1739652294.5010943,6776,-15364,-16332,-8652,11475,4395
1739652294.5010943,7116,-15524,-17136,-8112,11526,4711
1739652294.5020616,7404,-15500,-17696,-7206,11886,4846
1739652294.5030756,7876,-15564,-17840,-6342,12015,4937
1739652294.504073,8688,-15768,-18292,-5506,12044,5249
1739652294.5050616,9252,-15608,-19268,-4205,11573,5451
1739652294.5060616,9388,-15200,-19848,-2621,10888,5516
1739652294.5060616,9504,-15060,-20092,-980,10270,5561
1739652294.5070615,10124,-15136,-20292,863,9684,5608
1739652294.5080664,10336,-15168,-20120,2992,9402,5458
1739652294.5090885,10148,-15196,-19744,5161,8653,5200
1739652294.5090885,12920,-30780,2476,16539,-32768,6038
1739652294.5100617,12720,-31496,2464,15420,-32768,6696
1739652294.511066,12676,-32228,2284,14276,-32768,7394
1739652294.5120616,12260,-32664,2240,13525,-32768,8125
1739652294.5130632,11560,-32768,2508,12959,-32768,8740
1739652294.5140631,10820,-32768,2724,12668,-32768,9383
1739652294.5512602,10480,-32768,2780,12414,-32768,9945
1739652294.5512602,9976,-32764,2564,12297,-32768,10528
1739652294.5521576,9632,-32696,1724,12488,-32768,11113
1739652294.553224,9364,-32660,1304,13152,-32768,11614
1739652294.553224,9008,-32428,348,14215,-32768,12048
1739652294.5545554,8868,-32240,-140,15650,-32768,12384
1739652294.5555875,8528,-31920,248,17244,-32768,12599
1739652294.5565598,8372,-31412,852,18737,-32768,12809
1739652294.5565598,8196,-31108,1196,19988,-32768,12849
1739652294.557883,8144,-30460,1064,21115,-32768,12872
1739652294.5588906,8148,-30360,900,22179,-32768,12955
1739652294.5588906,8368,-30296,668,23219,-32768,13217
1739652294.5599172,8528,-30120,632,24067,-32768,13460
1739652294.5608983,8408,-29740,992,24727,-32768,13768
1739652294.6111748,8232,-29712,1664,24953,-32768,14141
1739652294.6111748,8144,-29640,2512,24783,-32768,14494
1739652294.6121366,7920,-29316,3524,24181,-32768,14744
1739652294.613136,7796,-29660,4532,23052,-32768,15141
1739652294.6141453,8128,-29912,4892,21667,-32768,15626
1739652294.6141453,8108,-30376,5480,20077,-32768,16195
1739652294.616222,8232,-30940,6080,18363,-32768,16865
1739652294.616222,8332,-31920,6996,16487,-32768,17741
1739652294.6172206,8212,-32548,7724,14412,-32768,18745
1739652294.6172206,8220,-32768,8500,12299,-32768,19806
1739652294.6181347,8200,-32768,9276,10151,-32768,20890
1739652294.619134,8280,-32768,9720,8021,-32768,22034
1739652294.6201556,8192,-32768,9648,5895,-32768,23213
1739652294.621152,8008,-32768,9564,4080,-32768,24338
1739652294.621152,7880,-32768,9428,2553,-32768,25381
1739652294.6231358,7940,-32768,9040,1371,-32768,26378
1739652294.6231358,8116,-32768,8348,696,-32768,27397
1739652294.6243196,8068,-32768,7968,472,-32768,28356
1739652294.6253257,8328,-32768,7656,697,-32768,29163
1739652294.6253257,8360,-32768,7580,1280,-32768,29886
1739652294.6264987,8252,-32768,7200,2234,-32768,30450
1739652294.6275036,8160,-32768,7444,3327,-32768,30896
1739652294.6285038,8260,-32768,7720,4523,-32768,31207
1739652294.6285038,8480,-32768,7728,5843,-32768,31479
1739652294.6711621,8732,-32768,7744,7363,-32768,31802
1739652294.6711621,8984,-32768,7624,9007,-32768,32028
1739652294.6721618,9072,-32768,7544,10782,-32768,32228
1739652294.6731613,9408,-32356,7972,12487,-32768,32384
1739652294.6731613,9452,-31704,8556,13940,-32768,32433
1739652294.6744857,9532,-31364,9104,15665,-32768,32465
1739652294.6755862,10008,-30424,9980,17029,-32768,32564
1739652294.6755862,10440,-29512,11212,18115,-32768,32590
1739652294.6767888,11056,-28772,12660,18779,-32768,32767
1739652294.6780183,11328,-28096,14712,18995,-32768,32767
1739652294.6780183,11536,-27480,16764,18739,-32768,32767
1739652294.6790235,11528,-26820,19320,18038,-32768,32767
1739652294.6804905,11868,-26220,21576,16902,-32768,32767
1739652294.7302766,12288,-25784,23712,15420,-32768,32767
1739652294.7315164,12516,-25448,25548,13524,-32768,32767
1739652294.7325706,12868,-25404,27208,11505,-32768,32767
1739652294.7325706,13172,-24988,29176,9387,-32768,32767
1739652294.733525,13556,-25096,30572,6966,-32768,32767
1739652294.734522,12964,-24956,31868,4594,-32734,32767
1739652294.7355242,13240,-24684,32767,2362,-31989,32767
1739652294.736522,13228,-24564,32767,253,-31153,32767
1739652294.7375214,12956,-24776,32767,-1501,-30356,32767
1739652294.7904737,13384,-25028,32767,-2922,-29191,32767
1739652294.7914212,13020,-25188,32767,-3986,-28039,32767
1739652294.7924237,12808,-25296,32767,-4644,-26832,32767
1739652294.7924237,12136,-25272,32767,-4794,-25579,32767
1739652294.793878,11448,-25396,32767,-4467,-24293,32767
1739652294.7948823,11052,-25372,32767,-3767,-22748,32767
1739652294.7959256,10308,-25304,32767,-2732,-21244,32767
1739652294.8507094,9456,-25036,32767,-1476,-19687,32767
1739652294.9119222,8832,-24472,32767,-128,-18001,32767
1739652295.0309079,8168,-23864,32767,1267,-16633,32767
1739652295.0319047,7880,-23068,32568,2690,-15195,32767
1739652295.0319047,7648,-22216,32292,3891,-13899,32767
1739652295.0331287,7608,-21088,32120,4853,-12269,32767
1739652295.0341353,7360,-20672,31512,5891,-11048,32767
1739652295.0341353,7060,-19928,30940,7017,-10354,32767
1739652295.0366387,7244,-18592,31028,7898,-9190,32767
1739652295.0366387,7276,-18092,30624,8597,-8421,32767
1739652295.0379915,7064,-17132,30864,9255,-7916,32767
1739652295.0379915,6968,-16060,30912,9478,-7187,32767
1739652295.0393858,7228,-15360,30836,9464,-6517,32767
1739652295.0393858,7848,-14704,30848,9304,-5911,32767
1739652295.0406694,7776,-13856,31512,8812,-5850,32767
1739652295.0417984,8132,-13020,32268,8170,-5920,32767
1739652295.0426776,8624,-12328,32640,7367,-5579,32767
1739652295.0426776,8892,-11516,32767,6570,-5246,32767
1739652295.0441039,8812,-10520,32767,5677,-4759,32767
1739652295.045109,8824,-9772,32767,5007,-4280,32767
1739652295.045109,8632,-8960,32767,4455,-3708,32767
1739652295.0465198,8428,-8304,32767,3967,-3230,32767
1739652295.0465198,8440,-7784,32767,3493,-2621,32767
1739652295.0475266,8436,-7228,32767,3153,-1868,32767
1739652295.0488396,17488,3284,9888,10289,32767,-12981
1739652295.0498462,17368,3148,9668,9700,32767,-13289
1739652295.0498462,17272,3096,9000,9014,32767,-13624
1739652295.05119,17488,3380,8360,8323,32767,-13886
1739652295.052199,17728,3168,7692,7692,32767,-14090
1739652295.0906057,17892,3292,6616,7055,32767,-14333
1739652295.0915015,17844,3388,5804,6404,32767,-14594
1739652295.0915015,18232,3388,4860,5661,32767,-14811
1739652295.0924966,18272,3132,3580,5015,32767,-15097
1739652295.0939255,18588,2860,2396,4489,32767,-15267
1739652295.094973,18712,2528,1164,4040,32767,-15484
1739652295.094973,19088,2228,-284,3861,32767,-15669
1739652295.0959313,19336,1764,-1444,3778,32767,-15753
1739652295.0969572,19404,1404,-2504,3919,32767,-15746
1739652295.0979369,19568,968,-3640,4391,32767,-15706
1739652295.098996,19400,580,-4484,5026,32767,-15677
1739652295.098996,19276,72,-5736,5802,32767,-15761
1739652295.099932,19144,-332,-6648,6790,32767,-15794
1739652295.100935,19056,-692,-7616,7875,32767,-15945
1739652295.1511147,18792,-1004,-8044,9154,32767,-16225
1739652295.1511147,18800,-1140,-8420,10313,32767,-16606
1739652295.1520748,18692,-1280,-8440,11271,32767,-17082
1739652295.1530728,18656,-1464,-8504,12193,32767,-17601
1739652295.1530728,18048,-1840,-9000,12954,32767,-18039
1739652295.1542656,17792,-2132,-8948,13571,32767,-18591
1739652295.1552722,17408,-2400,-8568,13875,32767,-19146
1739652295.1562738,17116,-2500,-8120,13478,32767,-19863
1739652295.1562738,17000,-3084,-7916,12754,32767,-20593
1739652295.158322,16960,-3612,-7536,11630,32767,-21150
1739652295.158322,16268,-4872,-8676,10333,32767,-21500
1739652295.1592717,17584,-5212,-7564,9123,32767,-21556
1739652295.1602907,17560,-6248,-9076,7694,32767,-21715
1739652295.1602907,17632,-7324,-10368,6526,32767,-21549
1739652295.1614904,17824,-7856,-11104,5639,32767,-21276
1739652295.1624892,18688,-8584,-11532,4538,32767,-20793
1739652295.1634889,18644,-9140,-12564,3662,32767,-20128
1739652295.1644926,17688,-10584,-14552,3056,32767,-20278
1739652295.1644926,16492,-11828,-15464,2843,32767,-20082
1739652295.1665514,17644,-11980,-16284,2216,32767,-20298
1739652295.1665514,19772,-12652,-19924,3407,32767,-18956
1739652295.1675923,17588,-13616,-21464,4709,32767,-17975
1739652295.1684911,16968,-14800,-23352,6812,32767,-17492
1739652295.16949,16296,-15320,-25316,9656,32767,-17220
1739652295.16949,15640,-15280,-26736,13036,32767,-16975
1739652295.1704931,13412,-15332,-28008,16695,32767,-17385
1739652295.2112584,12344,-15368,-27800,20188,32767,-18153
1739652295.2112584,12152,-15084,-26604,22734,32767,-18874
1739652295.2122583,13240,-15168,-24820,24010,32767,-19163
1739652295.2132597,12492,-15072,-23624,24125,32326,-19292
1739652295.2142549,11816,-15436,-23200,23310,30995,-19553
1739652295.2152607,11700,-15808,-23228,21994,29664,-20048
1739652295.2152607,11140,-16596,-24132,20270,28222,-20103
1739652295.216343,11704,-17252,-26548,19061,27074,-20161
1739652295.2172549,11124,-17752,-29024,18423,26105,-19876
1739652295.2183535,12588,-18464,-29384,17393,25223,-18911
1739652295.2192569,12436,-18728,-29928,16369,24650,-17462
1739652295.2192569,12068,-19664,-30188,15616,23474,-15961
1739652295.2202578,12184,-20732,-29644,14584,22387,-14385
1739652295.221306,11456,-21476,-29552,13907,21578,-12990
1739652295.222347,11056,-22368,-29680,13715,20549,-12088
1739652295.222347,10788,-23136,-29588,14451,19454,-11260
1739652295.2235096,9944,-22836,-29224,15989,19315,-10875
1739652295.2247474,9784,-23008,-28520,17313,17983,-10690
1739652295.270541,9968,-22552,-28196,19643,17075,-10664
1739652295.2715328,9912,-21720,-28100,22448,16136,-10893
1739652295.2725341,9640,-20236,-26480,25040,15584,-11101
1739652295.2725341,9596,-19840,-25008,26871,14677,-11096
1739652295.2735314,9612,-19600,-23076,28230,14671,-11205
1739652295.2746186,8264,-19384,-20556,28681,15508,-11615
1739652295.2746186,7548,-19432,-18268,28232,16299,-12020
1739652295.276894,7108,-19292,-16844,27317,16803,-12190
1739652295.276894,6720,-19524,-15540,26013,17165,-12430
1739652295.2778935,6452,-19612,-14880,24514,17729,-12709
1739652295.2789872,7092,-20020,-14660,22850,18753,-12890
1739652295.2789872,8648,-20848,-15296,21301,20109,-12580
1739652295.2808938,6072,-22208,-18616,20124,19948,-11961
1739652295.2808938,8316,-21384,-15116,18853,21536,-11741
1739652295.2818935,6760,-22216,-16752,16986,21540,-11487
1739652295.2830918,5704,-22968,-16040,16192,22876,-11369
1739652295.2830918,6344,-25128,-16140,14935,22836,-11851
1739652295.285103,7588,-26352,-16364,13418,22208,-10161
1739652295.285103,6052,-27528,-18780,12834,21961,-10682
1739652295.2861016,5312,-28600,-19064,12407,21694,-10894
1739652295.3301644,6412,-29380,-19560,11883,21127,-10364
1739652295.331639,6628,-28740,-20784,11425,21212,-9973
1739652295.331639,6716,-29344,-22136,11031,21494,-9753
1739652295.3326626,5748,-28264,-24580,11169,22273,-9984
1739652295.333667,6452,-29920,-26476,11368,21606,-9843
1739652295.333667,7392,-30584,-27404,11380,20487,-9112
1739652295.3350658,6888,-27660,-29480,12037,20891,-9103
1739652295.3350658,6368,-26860,-31276,13583,20665,-8928
1739652295.3365588,8252,-26904,-32192,15028,19141,-8300
1739652295.3380585,9488,-26168,-32236,16896,17453,-7682
1739652295.3380585,7500,-24960,-32268,18676,15490,-6235
1739652295.339063,6044,-24460,-31192,19993,15119,-4855
1739652295.3403687,4760,-23536,-30608,20918,14224,-4457
1739652295.3403687,5600,-22432,-29588,22794,12611,-3936
1739652295.3413775,3644,-21304,-27636,23977,12636,-3336
1739652295.3423767,1568,-20652,-26400,24860,11177,-3934
1739652295.343376,1356,-22040,-22232,24781,10918,-3993
1739652295.3443763,1252,-20888,-18908,23945,10447,-4587
1739652295.3443763,1684,-19636,-17324,22791,9900,-4861
1739652295.345833,2352,-19800,-17264,21739,9302,-4844
1739652295.3909,1600,-19288,-18184,21082,8658,-5278
1739652295.3909,1820,-19164,-18620,21309,8199,-5725
1739652295.392269,2972,-18992,-18268,21695,7844,-5969
1739652295.392269,3920,-18400,-18188,22331,8151,-6375
1739652295.393747,5216,-18508,-18592,23413,8477,-6410
1739652295.4499063,5076,-18512,-19188,24869,8452,-6279
1739652295.4513004,4360,-18916,-20148,26902,8740,-6560
1739652295.4513004,3952,-19132,-20224,29307,9012,-7011
1739652295.4527838,3932,-19352,-20376,31912,9226,-7558
1739652295.4537904,3948,-18976,-20548,32767,9472,-8002
1739652295.4547908,4728,-19844,-19932,32767,9297,-8696
1739652295.4547908,4584,-20964,-19012,32767,9975,-8855
1739652295.4557898,3988,-19996,-19108,32767,11088,-9444
1739652295.4567893,3888,-20208,-16528,32767,11871,-9058
1739652295.457789,1916,-19312,-13200,32767,12993,-9128
1739652295.4587893,2452,-19232,-6700,32767,12051,-9857
1739652295.4587893,1868,-18532,-3568,32767,11041,-9121
1739652295.4597893,1072,-17544,124,32767,8825,-9292
1739652295.4607892,2396,-19384,1676,31035,7242,-8693
1739652295.4607892,2488,-19740,1524,25913,6398,-8368
1739652295.462227,3808,-20684,248,21150,5463,-8001
1739652295.462227,4548,-21972,-2628,17365,5196,-7399
1739652295.4637284,5204,-23504,-4728,14315,4968,-6834
1739652295.464744,5716,-23404,-6840,12061,5041,-6577
1739652295.4657445,6920,-24100,-6936,9633,5517,-6226
1739652295.4657445,7668,-24672,-8080,7320,5278,-5491
1739652295.4667444,7492,-24508,-8100,5047,5103,-4972
1739652295.467747,7656,-24512,-7384,2425,4611,-4005
1739652295.4687474,7912,-25608,-6568,-441,4060,-2861
1739652295.469745,7044,-24504,-6720,-2782,4369,-2369
1739652295.469745,6972,-23992,-6840,-4674,5254,-2468
1739652295.4710476,7576,-24220,-7760,-6205,4963,-2270
1739652295.4720528,8708,-23880,-8884,-7054,4081,-1700
1739652295.4720528,9152,-23412,-10348,-6875,3703,-1072
1739652295.4730537,9064,-23676,-10868,-6221,3503,-673
1739652295.4741235,8628,-22584,-13952,6697,1703,-1901
1739652295.4751585,8308,-20792,-15636,11201,1582,-2458
1739652295.4761302,8048,-20004,-17068,16032,1917,-2941
1739652295.4761302,8072,-19204,-17388,20956,2408,-3142
1739652295.477129,6908,-17636,-16444,25507,3327,-3719
1739652295.5111544,6288,-16812,-14304,29115,4825,-4239
1739652295.5111544,4944,-15564,-12072,32070,5855,-5133
1739652295.5121372,5008,-14372,-9660,32767,5892,-5643
1739652295.513132,4940,-13312,-6596,32767,5767,-6013
1739652295.513132,4948,-12644,-5020,32767,5579,-6380
1739652295.5141997,4092,-12096,-3904,32767,5670,-6865
1739652295.5152164,3116,-10908,-1740,32767,5996,-7811
1739652295.5162203,2572,-10784,636,32654,5850,-8398
1739652295.5162203,2768,-11124,2228,30174,5232,-8731
1739652295.5175507,1720,-11392,2920,27303,3387,-8662
1739652295.5185695,3088,-11536,3800,24539,3723,-9349
1739652295.5195704,4648,-12280,3476,21559,3755,-9378
1739652295.5711951,4468,-12228,2448,18659,3977,-9253
1739652295.5711951,4812,-12756,1428,15913,4237,-9167
1739652295.5721943,5264,-13616,-20,13725,3690,-8886
1739652295.573199,5392,-14556,-732,12054,2852,-8818
1739652295.5747097,5760,-15144,-692,10749,2743,-8791
1739652295.5747097,5968,-16116,-2048,9988,2014,-8513
1739652295.5771668,6076,-16924,-3288,10075,1815,-8638
1739652295.5781078,6364,-17804,-4212,10630,1819,-8741
1739652295.5781078,5276,-17944,-5164,11456,1916,-9344
1739652295.5791094,3732,-19440,-5744,12754,1202,-10881
1739652295.5801964,4520,-19656,-5868,14161,1414,-12326
1739652295.5811071,7872,-19880,-7072,15941,1629,-13280
1739652295.5811071,9856,-19772,-7880,17866,-722,-12034
1739652295.5821075,12120,-18928,-7520,20702,3616,-11826
1739652295.583107,9832,-18224,-9232,23599,5577,-12775
1739652295.5841064,9672,-18188,-11652,27094,3360,-13548
1739652295.5841064,10788,-17560,-12012,31120,2346,-13487
1739652295.5851076,13092,-17872,-12004,32767,2267,-13096
1739652295.6913888,16100,-18716,-11712,32767,4043,-11811
1739652295.6913888,16372,-17732,-11200,32767,4156,-10180
1739652295.6923885,16160,-14388,-8352,32767,7880,-8545
1739652295.693388,14644,-13444,-6688,32767,6918,-6769
1739652295.693388,11180,-11172,-3976,32767,5622,-6778
1739652295.6943867,12436,-9628,-220,32767,5293,-6487
1739652295.69539,13444,-8828,2944,32767,5856,-5985
1739652295.6963873,10116,-10848,3284,32767,3206,-5161
1739652295.6963873,8900,-10252,5540,32767,3307,-5444
1739652295.6973882,10632,-10620,8224,32767,4225,-4994
1739652295.6984375,6876,-8540,6500,32767,3892,-5806
1739652295.6994967,7592,-10584,5556,32767,4643,-6287
1739652295.75087,9112,-12172,4948,32767,4010,-4754
1739652295.75087,6524,-10024,5940,32767,3669,-5191
1739652295.7522433,7788,-10484,3000,32767,3601,-5674
1739652295.7532508,7152,-9656,2576,32767,2501,-5664
1739652295.7542517,7032,-10104,1440,32767,2169,-5953
1739652295.7542517,7972,-10424,608,32767,2476,-6046
1739652295.7552574,9860,-11212,1056,32767,3504,-5518
1739652295.7562492,8996,-11120,-444,32767,3615,-5088
1739652295.7572515,8752,-9656,852,32767,4136,-4922
1739652295.7572515,7936,-11816,-1188,32767,2678,-4467
1739652295.7583292,8076,-12552,-4344,32767,1617,-4228
1739652295.7592502,8536,-10488,-3316,32767,1334,-3925
1739652295.7603476,9816,-10532,-2140,32767,936,-3164
1739652295.7603476,9676,-10188,440,32767,179,-2438
1739652295.7612529,8356,-9796,3240,32767,-1593,-1868
1739652295.7623296,7748,-8900,4412,32767,-3210,-1958
1739652295.7633297,11032,-9272,5540,32767,-2157,-1813
1739652295.7633297,7432,-10892,3820,32767,-3621,-1595
1739652295.764346,5952,-11428,4732,32767,-4769,-1911
1739652295.7653704,10236,-13228,9292,25546,-9497,-2459
1739652295.7664473,10356,-13548,9568,25272,-9827,-2303
1739652295.7664473,10316,-13760,9832,25188,-10179,-2199
1739652295.7675126,10652,-14416,9904,25263,-10676,-2022
1739652295.7685935,10872,-15096,9924,25563,-11049,-1800
1739652295.7696447,11256,-15732,9808,26110,-11452,-1506
1739652295.7696447,11788,-16248,9608,26855,-11730,-1152
1739652295.7706528,12008,-16628,9388,27830,-11908,-746
1739652295.7716498,12100,-16636,9656,28956,-11608,-397
1739652295.772654,12236,-16808,9804,29939,-11422,-75
1739652295.773654,12532,-16504,9872,30950,-10882,391
1739652295.7746525,11576,-14136,16136,30419,-11150,4942
1739652295.7746525,10620,-14396,16932,28669,-10876,5609
1739652295.7756522,10692,-14348,18100,26650,-11238,6309
1739652295.7767446,11136,-14900,19472,24518,-11872,7216
1739652295.7776515,10908,-14772,19708,22344,-12637,7913
1739652295.8106492,10932,-14820,18972,20668,-13425,8334
1739652295.8702633,12132,-15976,19236,19188,-13576,9002
1739652295.8712635,11956,-16320,19064,18092,-14023,9406
1739652295.8712635,13192,-17260,19296,17043,-14078,10070
1739652295.8727179,13216,-17200,19268,16079,-14084,10577
1739652295.8741348,13504,-17904,18940,15375,-14353,11146
1739652295.8741348,13644,-18504,18868,15029,-14571,11749
1739652295.8751445,13320,-18780,19416,14723,-14800,12092
1739652295.876283,14164,-19184,19896,14487,-15000,12477
1739652295.876283,14936,-20272,20544,14408,-15294,12873
1739652295.8773568,15324,-21640,20500,14403,-15470,13347
1739652295.8788462,15696,-22752,20676,14491,-15819,13923
1739652295.8788462,15820,-23492,20440,14552,-15872,14437
1739652295.8798523,15012,-23340,20036,14655,-16038,14953
1739652295.8808522,-10724,-10308,15244,15277,-22038,10108
1739652295.8818514,25416,-32768,19796,18386,-20988,14684
1739652295.8828516,13908,-21436,24056,16662,-18790,14442
1739652295.8838518,16556,-24604,24812,15363,-17740,15690
1739652295.8838518,17532,-25924,22140,15642,-18596,17665
1739652295.8848515,18844,-24736,21144,16384,-17572,19091
1739652295.885852,18664,-24208,19132,17190,-16718,20653
1739652295.9308517,18396,-23736,19544,18219,-15616,21810
1739652295.9318519,18768,-24332,19196,19195,-14306,23059
1739652295.9318519,18984,-23496,19068,20269,-13330,24116
1739652295.9318519,18772,-22336,19904,21027,-12129,25142
1739652295.9333453,18172,-21852,21296,21309,-11287,25981
1739652295.9343495,17272,-21112,21912,21395,-11187,26782
1739652295.9343495,16956,-19828,22944,20959,-10743,27272
1739652295.9358072,16500,-19220,23156,20232,-10575,27909
1739652295.936812,16284,-18560,23004,19566,-10633,28386
1739652295.9378116,15996,-17628,22820,18718,-10552,28913
1739652295.9388888,16096,-17072,21864,17928,-10421,29452
1739652295.9388888,14860,-15896,23212,13931,-12205,31397
1739652295.940339,14996,-16688,23448,12742,-13104,31816
1739652295.9413438,15188,-17236,23884,11596,-14024,32172
1739652295.9413438,15240,-17648,24476,10177,-14729,32550
1739652295.9423516,15548,-18440,24340,9203,-15437,32767
1739652295.943809,16456,-19012,23856,8364,-15407,32767
1739652295.943809,16452,-19344,24036,7834,-15534,32767
1739652295.9452653,16144,-19796,24284,7385,-15681,32767
1739652295.9452653,16176,-19960,24360,6935,-15706,32767
1739652295.9462698,16300,-20140,24500,6635,-15816,32767
1739652295.9472764,16592,-20204,24752,6365,-15889,32767
1739652295.9472764,16812,-19968,25052,6099,-15828,32767
1739652295.9486992,16980,-20036,24796,5877,-15658,32767
1739652295.9501677,17020,-19872,24320,5724,-15553,32767
1739652295.9501677,16956,-19456,24480,5712,-15332,32767
1739652295.9511728,17400,-19116,24108,5909,-14875,32767
1739652295.9526474,17480,-18856,24216,6148,-14111,32767
1739652295.9526474,17756,-18528,24416,6275,-13235,32767
1739652295.9541478,17404,-18252,24804,6333,-12532,32767
1739652295.9541478,17292,-17896,25396,6179,-11712,32767
1739652295.955155,16868,-17440,25664,5801,-11064,32767
1739652295.9565876,16380,-17076,26036,5143,-10518,32767
1739652295.9565876,15656,-16992,26196,4398,-9976,32767
1739652295.9580827,15344,-16640,26352,3681,-9402,32767
1739652295.9580827,15064,-16444,26672,2799,-8834,32767
1739652295.9590883,15144,-16176,26872,1774,-8106,32767
1739652295.9906447,14664,-16200,26944,661,-7813,32767
1739652295.9916224,14380,-15868,26984,-589,-7751,32767
1739652295.9926233,13800,-15908,26996,-1897,-7501,32767
1739652295.9926233,13436,-15632,27020,-3642,-7758,32767
1739652295.993621,12772,-15816,26536,-5000,-8596,32767
1739652295.9946423,12160,-15416,26116,-6089,-10108,32767
1739652295.9956248,12160,-14812,26212,-7368,-11317,32767
1739652295.9956248,12628,-14468,25996,-8796,-12362,32767
1739652295.996929,12836,-14356,25516,-10048,-13477,32767
1739652295.9979436,12992,-14428,25236,-11085,-14370,32767
1739652295.998935,12996,-14476,25024,-11901,-15026,32767
1739652295.998935,12952,-14512,25216,-12511,-15534,32767
1739652295.9999356,12844,-14364,25392,-12946,-16097,32767
1739652296.0009692,13032,-14208,26060,-13284,-16880,32767
1739652296.0510828,13092,-14096,26768,-13481,-17281,32767
1739652296.0510828,13212,-13648,28156,-13747,-17484,32767
1739652296.0520794,13272,-13604,29648,-14180,-17434,32767
1739652296.0531228,13656,-13140,31660,-14788,-17095,32767
1739652296.0540764,13808,-12616,32767,-15643,-16895,32767
1739652296.0550766,14136,-12136,32767,-16707,-16687,32767
1739652296.0550766,14792,-12156,32767,-17314,-15799,32767
1739652296.0560782,15072,-12300,32767,-17497,-15047,32767
1739652296.0560782,15216,-12288,32767,-17400,-13898,32767
1739652296.0585291,14944,-12284,32767,-16992,-12402,32767
1739652296.0585291,14748,-12036,32767,-16630,-11064,32767
1739652296.0595248,14252,-12124,32767,-16256,-9811,32767
1739652296.0595248,13592,-11760,32767,-15963,-8811,32767
1739652296.0610287,12752,-11228,32767,-15724,-7963,32767
1739652296.0620675,12056,-10648,32767,-15736,-7414,32767
1739652296.0630329,11328,-10036,32767,-16073,-6947,32767
1739652296.0630329,10740,-9520,32767,-16812,-6531,32767
1739652296.064033,10464,-8656,32767,-18008,-6291,32767
1739652296.065033,10252,-8068,32767,-19680,-5936,32767
1739652296.066064,9976,-7652,32767,-21763,-5298,32767
1739652296.067036,9344,-7528,32767,-23777,-4793,32767
1739652296.0680325,8836,-7668,32767,-25562,-4600,32767
1739652296.1110346,8416,-7996,32767,-27047,-4438,32767
1739652296.1110346,8384,-8764,32767,-28152,-4403,32767
1739652296.1120698,8600,-9872,32767,-28796,-4399,32767
1739652296.1130798,8908,-10400,32767,-29059,-4046,32767
1739652296.1140783,8648,-10560,32767,-29303,-3473,32767
1739652296.1150794,8652,-11016,32767,-29357,-3022,32767
1739652296.1150794,8620,-10748,32767,-29268,-2850,32767
1739652296.1160774,8728,-10416,32704,-29211,-2854,32767
1739652296.1171625,9052,-9928,32104,-29306,-2618,32767
1739652296.118079,9160,-9656,31552,-29437,-1986,32767
1739652296.1190815,9072,-9448,30796,-29571,-1339,32767
1739652296.1190815,8732,-9548,29824,-29595,-783,32767
1739652296.1202579,8956,-9516,29008,-29268,135,32767
1739652296.1212626,9248,-9436,29000,-29127,1129,32767
1739652296.122264,11316,-6292,30444,-32282,5340,32767
1739652296.122264,9548,-9444,17080,-29267,8876,32767
1739652296.1232846,7428,-9424,22156,-24922,8018,32767
1739652296.1243808,4704,-9008,28464,-22381,4808,32767
1739652296.1253822,5152,-7912,32767,-21912,2750,32767
1739652296.171239,5104,-7384,32767,-22747,2650,32767
1739652296.171239,5296,-7064,30756,-23116,2779,32767
1739652296.17224,5332,-7108,29812,-23183,3345,32767
1739652296.173237,4928,-6856,30008,-23015,3573,32767
1739652296.173237,4376,-6732,31196,-22895,3718,32767
1739652296.1742387,3756,-7120,32124,-22805,3718,32767
1739652296.1752386,3432,-7532,32656,-22923,3842,32767
1739652296.176236,3240,-7600,32540,-22535,3994,32767
1739652296.1772416,2812,-8420,32052,-21879,4455,32767
1739652296.1772416,2904,-8384,31040,-20894,4922,32767
1739652296.17865,3228,-8352,30468,-19768,5896,32767
1739652296.179654,3504,-8120,30388,-18684,6933,32767
1739652296.179654,3004,-7608,30216,-17744,7966,32767
1739652296.180712,2728,-7068,29988,-16950,8775,32767
1739652296.1817985,2604,-6668,30040,-16434,9406,32767
1739652296.1826546,2240,-5820,29836,-16050,10000,32767
1739652296.1826546,2104,-5092,29876,-16002,10644,32767
1739652296.1836565,572,-4936,28680,-16422,11462,32767
1739652296.1847162,4,-4260,28344,-16608,11653,32767
1739652296.1857798,-336,-3256,27388,-17045,11940,32767
1739652296.2307913,-948,-2184,26044,-17440,11782,32767
1739652296.2316568,72,-2280,26148,-17941,12004,32767
1739652296.2326555,196,-2412,25536,-18480,12194,32767
1739652296.2326555,-532,-1020,24004,-19070,12135,32767
1739652296.233662,40,-564,24504,-19592,12261,32767
1739652296.2914987,92,232,24436,-20477,12361,32767
1739652296.2914987,-384,604,24320,-21700,12968,32767
1739652296.2925875,-528,1564,24164,-23254,13603,32767
1739652296.2925875,-1988,3148,22680,-24165,13158,32767
1739652296.293934,-1532,3356,22384,-24313,12239,32767
1739652296.293934,-1004,3224,21704,-24073,11636,32767
1739652296.295088,-1016,2636,20696,-23425,11044,32767
1739652296.2963636,-984,2784,19316,-22138,10568,32767
1739652296.297368,-1580,3176,17792,-20358,10155,32767
1739652296.297368,-1376,3232,16984,-18186,9684,32767
1739652296.298368,-880,3752,16676,-15857,9803,32767
1739652296.2994661,-424,4196,16556,-13303,10385,32767
1739652296.3003702,444,4528,16592,-10599,11143,32767
1739652296.3013694,904,4636,15988,-7675,11767,32767
1739652296.3013694,532,5324,16128,-4595,12281,32767
1739652296.3024712,600,5132,16292,-1501,13073,32767
1739652296.3509705,-48,5296,16592,1483,13764,32377
1739652296.4112751,-880,5868,17324,4465,14452,30328
1739652296.4112751,-712,6180,17864,7310,15154,28539
1739652296.4122589,-1196,6640,18440,9722,15356,27347
1739652296.4132621,-1384,7084,19188,11637,15784,26170
1739652296.4704075,-1708,7376,19980,12917,16106,24805
1739652296.471336,-1228,7232,21308,13384,16545,23894
1739652296.471336,-2148,7560,21468,13336,16871,23091
1739652296.4727974,-2532,7484,22528,13004,16661,22342
1739652296.473806,-2424,6908,22960,12284,16339,21751
1739652296.4748096,-2436,6888,23164,11436,15614,21150
1739652296.4758122,-1352,6792,23472,10375,15882,20669
1739652296.4758122,-1224,7036,22848,9095,15976,20299
1739652296.4769106,-588,7044,22900,7390,16972,20085
1739652296.4778829,-548,7576,21588,-753,22634,15870
1739652296.4778829,-1064,6640,20848,-1471,22936,14977
1739652296.4788108,-2492,7296,19352,-1205,22429,13783
1739652296.47981,180,4460,18376,-186,21079,13631
1739652296.4809093,416,4068,17424,1132,20034,13134
1739652296.4818506,-6120,8032,16644,2649,21419,10738
1739652296.4828124,5420,2328,15912,3065,20003,11079
1739652296.4828124,4132,4508,14724,4796,21661,10794
1739652296.483817,3108,6424,14368,6004,22481,9944
1739652296.484917,4712,6068,14112,6972,23144,9793
1739652296.485968,3424,5872,13400,8445,23330,9308
1739652296.485968,3080,6040,13352,9678,23616,8591
1739652296.4870393,2696,6440,13188,10845,24327,7576
1739652296.4880483,3272,6016,13572,11635,25085,6367
1739652296.4880483,2284,6752,12584,12494,25563,4961
1739652296.4894328,2696,6796,12508,13341,25782,3568
1739652296.4894328,3188,6604,12208,14147,25744,2210
1739652296.4904401,10356,1696,1432,25320,32767,-26892
1739652296.4914384,10224,308,-1060,24623,32767,-27206
1739652296.492529,11328,28,-1288,23971,32767,-27389
1739652296.492529,11448,-596,-2164,23202,32767,-27552
1739652296.4944408,11292,-1352,-3500,22458,32330,-27526
1739652296.5308313,11420,-1892,-4228,22068,30892,-27542
1739652296.5317416,11804,-2380,-5000,20865,30303,-27299
1739652296.532741,11564,-2796,-5996,19991,30202,-27154
1739652296.532741,11628,-3028,-7008,19333,29529,-26993
1739652296.5337427,11204,-3208,-7448,19035,28783,-26725
1739652296.5348341,11428,-3060,-7480,18667,28185,-26610
1739652296.53574,11788,-3160,-7448,18035,27810,-25810
1739652296.53574,11712,-3128,-7536,18330,27480,-25434
1739652296.5369985,9404,-2964,-7796,18488,23472,-24643
1739652296.5380046,10820,-3324,-7452,18420,23533,-23964
1739652296.5390038,11808,-2836,-8664,18041,24473,-24326
1739652296.5390038,11452,-3248,-9176,17862,25133,-23684
1739652296.5404687,10652,-4048,-9508,18225,23987,-23460
1739652296.5404687,11140,-5060,-8440,18805,24564,-23242
1739652296.5414743,8424,-4664,-8632,19014,23157,-24150
1739652296.5424738,7504,-4776,-8068,19243,23698,-25982
1739652296.5911748,9256,-6728,-7904,18377,22106,-25608
1739652296.5911748,11080,-6992,-7392,18292,22624,-27012
1739652296.592174,10876,-7472,-7424,18192,22265,-27604
1739652296.5932584,10512,-8056,-7848,17592,21644,-27927
1739652296.5932584,12592,-9084,-7968,17280,21808,-29084
1739652296.5947292,12292,-11060,-8456,16980,22324,-29228
1739652296.5957377,11336,-11636,-9628,16730,21476,-29519
1739652296.596736,12028,-12556,-10004,17124,21200,-29999
1739652296.596736,12920,-13724,-10744,17755,19995,-30065
1739652296.597739,14652,-14516,-11416,18454,20201,-30088
1739652296.5988126,15988,-15376,-12244,19388,21789,-29994
1739652296.5988126,16448,-16644,-12772,20726,23178,-29756
1739652296.6009028,16012,-16476,-12484,22321,24685,-29410
1739652296.6009028,14156,-16468,-12152,24656,22990,-28685
1739652296.6029024,14472,-15556,-12596,26963,20988,-28864
1739652296.6029024,15048,-15584,-12036,29420,18590,-28921
1739652296.6039011,15868,-14960,-11964,30583,20179,-28951
1739652296.6039011,14064,-15508,-13464,32381,18465,-28974
1739652296.6059017,14424,-14596,-12980,32767,17809,-29328
1739652296.6059017,15152,-13568,-12148,32767,18055,-29141
1739652296.607018,14900,-13448,-11208,32767,19369,-29118
1739652296.6079028,14412,-14408,-10344,32767,20228,-29184
1739652296.6504931,13336,-15048,-9396,32767,19880,-29201
1739652296.6513758,12260,-15432,-7136,32749,18514,-29161
1739652296.7105727,11752,-16244,-5256,31008,16766,-29016
1739652296.711551,11980,-17488,-4280,28818,15376,-28884
1739652296.7125466,12248,-19144,-3968,26331,14344,-28922
1739652296.7125466,11632,-20536,-4180,23859,13416,-29001
1739652296.7138562,15028,-23040,-3600,20993,13398,-28684
1739652296.7148626,15404,-24144,-3876,18637,13077,-28199
1739652296.7148626,15812,-25036,-4004,16533,12423,-27503
1739652296.7158613,13348,-25124,-3728,14854,10670,-26900
1739652296.7168808,16216,-26632,-5120,13365,10516,-26285
1739652296.7178862,16820,-26940,-6960,11963,11933,-25501
1739652296.7188933,17856,-27036,-8356,11017,13960,-24469
1739652296.7188933,17668,-27824,-9240,11225,14086,-23192
1739652296.7202096,19256,-27468,-10592,12286,14789,-21988
1739652296.7212954,19240,-26988,-12004,13758,15749,-21109
1739652296.7223008,19892,-26412,-13672,15966,16757,-20031
1739652296.7223008,20892,-26836,-13876,18951,18146,-19701
1739652296.7233033,19872,-26308,-14676,22709,19945,-20083
1739652296.7243404,16288,-19416,-12312,25744,18929,-20812
1739652296.7253196,19992,-25084,-15816,27607,22151,-19228
1739652296.7253196,12296,-25336,-12936,32767,18134,-20324
1739652296.7266512,19124,-21172,-10348,32767,20361,-22667
1739652296.7279572,18800,-23176,-13872,32767,26417,-24319
1739652296.7279572,13248,-21344,-10716,32767,26970,-24410
1739652296.7289631,14008,-19348,-7880,32767,28681,-24842
1739652296.7304456,12116,-19036,-5920,32767,30000,-25607
1739652296.7304456,11684,-18644,-3236,32767,30269,-26945
1739652296.7314553,10748,-18516,-336,32767,29431,-27642
1739652296.7324724,9548,-19228,1364,32767,27685,-27979
1739652296.7334528,9884,-19176,3328,32767,26152,-28486
1739652296.734454,10240,-20512,4824,32767,25915,-28817
1739652296.734454,13664,-20748,2860,26599,20551,-24866
1739652296.7354558,14124,-20484,2196,25212,21310,-24005
1739652296.7364557,13720,-20868,1776,24038,21673,-22974
1739652296.737455,14132,-20240,1148,23562,21408,-22332
1739652296.7384546,14516,-20740,932,23434,21126,-21568
1739652296.7384546,13988,-20336,400,24024,19673,-21049
1739652296.7709782,14180,-20236,412,24556,18604,-20636
1739652296.7709782,13920,-20152,380,24839,17856,-20270
1739652296.7719777,13768,-20148,676,25086,17024,-19855
1739652296.7729788,14276,-20428,1296,25279,16368,-19420
1739652296.7739775,14040,-20372,1464,25493,15317,-19067
1739652296.7739775,14132,-20736,2240,25509,14365,-18804
1739652296.7759783,14548,-20952,2840,25415,13372,-18647
1739652296.7759783,15028,-21180,3844,24861,12474,-18269
1739652296.7770758,15460,-21296,4192,24027,12191,-17880
1739652296.7780707,15304,-21580,4732,23403,11780,-17634
1739652296.7789783,15364,-21980,5592,22823,11273,-17210
1739652296.7789783,15472,-22196,5588,22125,11385,-16718
1739652296.7799795,15976,-22288,5908,22111,11489,-16857
1739652296.7811031,16368,-21908,6096,22682,11473,-17251
1739652296.83164,16888,-21772,6104,23439,11332,-17594
1739652296.83164,17712,-21492,6076,24388,11550,-17929
1739652296.832639,18268,-21468,5592,25296,11844,-18172
1739652296.8336523,19444,-21404,5340,26129,12657,-18279
1739652296.8336523,16932,-19968,5464,26107,10429,-16206
1739652296.8348684,20148,-18012,5840,25309,13164,-16887
1739652296.8358784,21164,-20120,6008,26745,15341,-17614
1739652296.8358784,19624,-20660,6864,29173,14978,-17947
1739652296.836885,19172,-21340,6428,31344,14701,-18351
1739652296.83788,18988,-20836,5216,32621,16222,-18915
1739652296.8388798,17988,-19512,4928,32767,17070,-19096
1739652296.8398776,15652,-19736,4728,32767,13359,-18313
1739652296.8398776,15488,-19012,5780,32767,10793,-18323
1739652296.8408847,16680,-16704,7916,32767,13025,-19239
1739652296.8418903,15460,-16536,7124,32767,13985,-20032
1739652296.8428912,14148,-16648,7576,32767,14193,-19897
1739652296.8439007,13736,-15772,8340,32767,13958,-19910
1739652296.8439007,13116,-15232,8344,32767,14743,-20136
1739652296.8448896,12436,-14468,9496,31357,15205,-19909
1739652296.8459117,12612,-13740,9864,28399,15824,-19479
1739652296.8468902,12120,-13492,10384,25185,16163,-18627
1739652296.84789,11872,-13540,10788,22149,13916,-17434
1739652296.8909955,12972,-13704,11616,19139,11595,-16505
1739652296.8918977,14004,-14452,12028,15985,9947,-15698
1739652296.8928976,14360,-15824,12120,13339,7368,-14974
1739652296.8928976,15340,-17724,11852,11320,4434,-14128
1739652296.8938942,17084,-19068,12648,9481,3523,-13497
1739652296.8948994,17692,-20900,12032,7825,2965,-12901
1739652296.895904,18344,-21456,11800,6526,2253,-11872
1739652296.895904,19568,-21972,11300,5480,1942,-10936
1739652296.896901,20580,-22296,11064,4994,1982,-9996
1739652296.8978953,21188,-22300,10848,4863,2579,-9161
1739652296.898896,21516,-22428,10268,5130,3275,-8234
1739652296.898896,21600,-22628,9500,5880,3612,-7246
1739652296.899895,21592,-22632,9556,6984,4203,-6376
1739652296.9008925,22372,-22556,8872,8287,4728,-5381
1739652296.9019063,23572,-19320,9364,8682,7016,-4184
1739652296.9019063,22788,-21228,7232,10523,8127,-3694
1739652296.9028966,22668,-20268,7320,12907,8037,-3435
1739652296.9038959,24692,-19488,8048,15503,10839,-3341
1739652296.904893,21316,-17244,6568,16036,10608,-2291
1739652296.9510183,20772,-15948,6816,16756,12807,-1805
1739652296.9519157,21512,-15576,5580,18213,12694,-2617
1739652296.9519157,21076,-15976,5236,20204,14210,-3139
1739652296.9539223,19340,-13876,6596,21504,14880,-3249
1739652296.9539223,18412,-12032,7288,22464,15078,-3757
1739652296.9549232,16756,-11176,6912,22912,15698,-4165
1739652296.9560437,16080,-10304,7096,22512,16470,-4635
1739652296.9560437,15760,-10404,7292,21864,18136,-5560
1739652296.9569206,14992,-9260,8176,21249,18535,-6107
1739652296.9579153,13288,-8952,8912,20652,17091,-6401
1739652296.9589143,12256,-8772,10012,20085,14134,-6759
1739652296.9589143,13588,-7492,10572,18323,13776,-7452
1739652296.9599123,13484,-8184,10624,16412,13613,-8062
1739652296.960912,12564,-8972,10116,14951,12153,-8419
1739652296.961914,13196,-9372,10600,13338,10744,-8763
1739652296.962913,13564,-10008,10884,11695,9313,-9093
1739652296.9642122,14212,-10432,10712,9998,7959,-9191
1739652297.0118194,15388,-10504,10536,8044,7511,-9125
1739652297.0118194,16064,-11252,9776,6330,7399,-9058
1739652297.0128067,16672,-12156,9688,5253,6543,-8737
1739652297.0128067,17368,-12876,9608,4400,5814,-8276
1739652297.0138123,17740,-13320,9440,3852,5139,-7784
1739652297.014814,18108,-14164,9648,3695,4627,-7113
1739652297.0158038,17384,-13868,9660,3666,3651,-6271
1739652297.0158038,18736,-14572,9480,3977,3440,-5818
1739652297.0168014,19060,-15536,8760,4761,3767,-5331
1739652297.017801,19060,-15384,8664,6319,3682,-4666
1739652297.0188026,19892,-15452,7644,7643,4824,-4235
1739652297.0188026,19896,-15268,7644,9358,5446,-3638
1739652297.0715628,19932,-15748,7064,11312,5056,-2978
1739652297.1317902,20308,-15308,7684,13271,6687,-2222
1739652297.1317902,21000,-14048,7264,14850,8174,-2257
1739652297.1327887,20832,-14372,7480,16936,8985,-1702
1739652297.1327887,20108,-13964,7672,18654,9562,-1323
1739652297.1337833,19588,-13180,7896,20384,10026,-1087
1739652297.1337833,18512,-13028,7888,21897,9878,-648
1739652297.1352816,18156,-12276,8756,22833,9851,-310
1739652297.1362972,17788,-12008,9072,23417,9948,-72
1739652297.1362972,17800,-12260,9604,23747,9756,242
1739652297.1372898,17968,-12340,10236,23536,9821,609
1739652297.1382904,17816,-12744,10756,23109,9464,1061
1739652297.1393793,17868,-13348,11288,22615,8989,1478
1739652297.140289,17856,-13916,11436,22066,8505,1925
1739652297.1413243,18040,-14288,11720,21384,8144,2448
1739652297.1413243,17916,-14708,11956,20685,7733,3082
1739652297.1422915,17292,-15248,11608,20157,7131,3696
1739652297.1432915,17436,-15060,11820,19555,6848,4404
1739652297.1442912,16928,-15212,11864,19054,6244,5158
1739652297.1442912,16820,-14872,12032,18569,5807,5983
1739652297.14529,16504,-14964,11660,18212,5363,6784
1739652297.1913204,16568,-14748,11532,18032,4866,7599
1739652297.1913204,16700,-14316,11340,17899,4531,8450
1739652297.1923127,16728,-14096,10788,17854,4200,9302
1739652297.1933806,16948,-13952,10720,17987,3908,10172
1739652297.1933806,17064,-13660,10764,18251,3643,10972
1739652297.1943886,16896,-13312,10504,18643,3198,11843
1739652297.1953902,16944,-13128,10356,19028,2850,12748
1739652297.1963887,16808,-12932,10356,19453,2692,13665
1739652297.1974566,16916,-12716,10300,19873,2634,14516
1739652297.1974566,16668,-12544,10352,20297,2844,15270
1739652297.1984408,10312,-9160,19796,18011,-7035,22054
1739652297.1993876,11008,-9572,20536,17235,-9012,23033
1739652297.200386,11520,-10060,21252,16092,-10257,24111
1739652297.200386,11512,-10388,21728,13961,-11201,25413
1739652297.2013872,11520,-10832,22256,12666,-10902,26592
1739652297.2023885,11588,-10784,22204,11499,-11277,27535
1739652297.2033997,12432,-10604,22512,10479,-11546,28665
1739652297.2043862,12640,-10432,22560,9587,-11889,29737
1739652297.2043862,13300,-9624,23144,8722,-11541,30440
1739652297.205387,13564,-9472,23052,7821,-11195,30900
1739652297.2064402,13800,-9608,22920,7058,-10992,31458
1739652297.207474,12892,-8896,23504,6338,-9174,31997
1739652297.207474,11980,-8120,22840,5562,-7895,31710
1739652297.208451,11992,-8276,23324,5211,-5874,31094
1739652297.2094512,10928,-7928,22820,5555,-5334,30692
1739652297.210481,10504,-8032,23152,6547,-5537,30292
1739652297.2114537,10164,-7864,23288,7582,-5538,29614
1739652297.2114537,10168,-6960,22336,8716,-5754,29144
1739652297.2124512,10496,-6600,22300,9987,-5738,28961
1739652297.2134516,10548,-6492,22444,10848,-5488,28872
1739652297.2144773,10076,-6032,23188,11259,-4893,28818
1739652297.215452,9252,-5856,24000,11213,-4163,28716
1739652297.215452,8552,-5572,24632,10858,-3352,28351
1739652297.2164512,8096,-5536,25032,10468,-3046,28261
1739652297.21748,7300,-5640,24912,10332,-3068,28059
1739652297.250725,7636,-6164,25520,10339,-3113,28006
1739652297.2516124,8064,-6640,25172,10403,-3414,28143
1739652297.2526116,8468,-6956,25560,10507,-3793,28552
1739652297.2526116,9024,-7124,26028,10305,-3969,29109
1739652297.2536113,9200,-6420,27016,9767,-3883,29839
1739652297.2546377,8896,-6700,28984,8609,-3653,30444
1739652297.2556138,9568,-6580,30880,6532,-2673,31248
1739652297.2566109,8644,-7108,31308,4250,-1483,31487
1739652297.2566109,7008,-8920,29948,2704,-1125,31396
1739652297.257718,7604,-9548,30152,1249,-723,31816
1739652297.2586102,14216,-9452,30816,-626,433,32767
1739652297.2596095,14744,-9628,28560,-2183,2621,32767
1739652297.2596095,21844,-9924,29584,-4500,5798,32767
1739652297.260609,9324,-10080,27024,-6134,7838,32767
1739652297.3114755,3468,-11076,25756,-6755,7524,32767
1739652297.3114755,1584,-12552,25100,-6287,4616,32767
1739652297.3124719,1736,-13368,24980,-5149,1116,32767
1739652297.313469,3308,-13420,25300,-3957,-2294,32767
1739652297.313469,5352,-12432,26048,-3426,-4667,32767
1739652297.3144867,7296,-10920,27268,-3825,-5801,32767
1739652297.315536,8472,-9372,28604,-5235,-5547,32767
1739652297.3165243,9076,-8148,29080,-7207,-4526,32767
1739652297.3165243,8772,-7060,29484,-9441,-3308,32767
1739652297.3174934,7708,-6816,28856,-11375,-2508,32767
1739652297.318516,6504,-6940,28164,-12789,-2246,32767
1739652297.3194935,5124,-7220,26980,-13588,-2491,32767
1739652297.3194935,4200,-7580,26132,-13970,-2971,32767
1739652297.3204932,4100,-8176,25508,-14033,-3346,32767
1739652297.3214924,4120,-8372,25360,-13887,-3945,32767
1739652297.3225222,3484,-7548,23820,-13012,-4621,32767
1739652297.3234928,2124,-7632,23428,-11807,-7250,32767
1739652297.3234928,3044,-8920,23684,-10627,-9672,32767
1739652297.3244941,4364,-9244,25676,-10201,-10492,32767
1739652297.3254924,3840,-9120,26724,-10922,-10913,32767
1739652297.3265193,4088,-9384,27200,-11867,-10511,32767
1739652297.327494,4004,-9524,26380,-12817,-10797,32767
1739652297.3284988,3588,-9344,26616,-13556,-10324,32767
1739652297.3714414,4644,-9340,26132,-14147,-10052,32767
1739652297.3714414,4336,-9696,25036,-14366,-10547,32767
1739652297.3723354,5352,-10132,25044,-14083,-9414,32767
1739652297.37333,4148,-10324,24308,-13817,-9736,32767
1739652297.3743322,2964,-9848,25392,-13759,-10180,32767
1739652297.3743322,2872,-9548,26440,-13942,-10227,32767
1739652297.3753297,2820,-9008,26464,-14131,-10503,32767
1739652297.3764343,3404,-8740,26756,-14567,-10844,32767
1739652297.3764343,3948,-8676,26700,-15019,-11425,32767
1739652297.378024,3584,-7772,26368,-15705,-11637,32767
1739652297.37903,3696,-7036,26840,-16304,-11369,32767
1739652297.37903,3612,-6652,26648,-17180,-11700,32767
1739652297.3800285,3940,-7152,26832,-17951,-11161,32767
1739652297.381084,4528,-6968,26952,-18788,-11008,32767
1739652297.3821154,4224,-7396,26596,-19487,-11010,32767
1739652297.4310942,4264,-7448,26764,-20011,-10753,32767
1739652297.432099,4444,-7248,27120,-20656,-10526,32767
1739652297.432099,5188,-7868,27628,-21222,-9764,32767
1739652297.433391,5100,-7964,27996,-21790,-9411,32767
1739652297.433391,4652,-7916,28140,-22417,-8959,32767
1739652297.4346073,3592,-7668,28132,-22924,-8512,32767
1739652297.4356174,2096,-7208,27760,-23208,-8260,32767
1739652297.4356174,1516,-7572,27720,-23419,-8167,32767
1739652297.436998,472,-7628,27744,-23426,-7705,32767
1739652297.4380922,900,-7600,27700,-23237,-6795,32767
1739652297.4380922,1040,-7092,28052,-23436,-4778,32767
1739652297.439272,860,-7568,27708,-23023,-3398,32767
1739652297.44028,-500,-6336,27584,-22582,-2333,32767
1739652297.4413662,-2096,-5204,27168,-21860,-2058,32767
1739652297.4413662,-2344,-4660,27412,-21305,-1914,32767
1739652297.442282,-2980,-3660,27076,-20719,-2146,32767
1739652297.4435759,-2864,-3828,26680,-20272,-2690,32767
1739652297.4435759,-2248,-3828,26904,-20227,-2296,32767
1739652297.4445832,-2188,-3368,26368,-20692,-2099,32767
1739652297.4455812,-2132,-3648,26132,-21562,-1819,32767
1739652297.4466283,-2480,-3684,25768,-22673,-1394,32767
1739652297.447652,-2356,-4364,25044,-23707,-1297,32767
1739652297.447652,-3844,-4764,21612,-23936,-2854,32767
1739652297.4486558,-3672,-5040,20876,-23354,-4615,32767
1739652297.4497187,-3728,-5680,21352,-23261,-7010,32767
1739652297.4912536,-2044,-6004,21344,-23577,-7437,32767
1739652297.4912536,-1096,-6884,22452,-24559,-7597,32767
1739652297.4922538,-1108,-7224,22140,-25729,-7293,32767
1739652297.4933424,-2500,-6968,21256,-26419,-8029,32767
1739652297.551375,-2108,-7056,21256,-26701,-8162,32767
1739652297.551375,-1300,-7376,21420,-27309,-7390,32767
1739652297.5523775,-1252,-8396,20288,-27302,-7467,32767
1739652297.553442,-1580,-8036,21020,-26848,-6848,32767
1739652297.553442,-1360,-8656,21428,-26773,-7163,32767
1739652297.5546246,-2904,-8056,21984,-26699,-7362,32767
1739652297.5556393,-2024,-8568,22604,-26988,-7393,32767
1739652297.5556393,-2180,-8048,23304,-27873,-4139,31722
1739652297.5566423,-1912,-10228,21232,-27069,-3493,31849
1739652297.557639,-3736,-9164,22336,-26833,-2444,31127
1739652297.5587351,-5340,-8288,23540,-26792,-1858,30357
1739652297.6111078,-4568,-9568,22844,-26611,-1538,29929
1739652297.6111078,-4636,-10752,22512,-26113,-1176,29811
1739652297.6121035,-5300,-10168,24048,-26595,145,29330
1739652297.6131537,-5752,-11840,22276,-25698,51,29524
1739652297.6131537,-7224,-10292,24680,-24874,-302,29337
1739652297.6143842,-7092,-11968,22816,-24572,-585,29474
1739652297.6143842,-6812,-11932,23768,-24637,-661,29792
1739652297.616779,-6336,-13648,21616,-23961,-1649,30746
1739652297.616779,-6192,-14424,19412,-22578,-2963,31782
1739652297.6178975,-6032,-14128,18460,-21085,-4461,32548
1739652297.6178975,-4464,-13212,19840,-20529,-5508,32767
1739652297.6707695,-4960,-12020,20824,-20689,-7405,32767
1739652297.6707695,-5264,-11180,22128,-20798,-9929,32767
1739652297.6719968,-5604,-10184,22064,-21328,-12059,32767
1739652297.6730025,-5548,-12192,21124,-23156,-11749,32767
1739652297.6740704,-4720,-12064,22008,-25914,-9923,32767
1739652297.6746893,-5420,-12460,18160,-28840,-7179,32767
1739652297.675695,-4424,-12812,17348,-30562,-5287,32767
1739652297.675695,-4864,-13044,17176,-32101,-3566,32767
1739652297.6766946,-5172,-15136,18588,-32216,-3729,32767
1739652297.6776965,-5468,-15600,18204,-31091,-3586,32767
1739652297.6776965,-4304,-15168,18236,-29593,-2623,32767
1739652297.6791778,-4628,-15168,18124,-28093,-1528,32767
1739652297.6801817,-4184,-15180,17888,-26288,-686,32767
1739652297.6813438,-5560,-14696,17400,-24152,-76,32767
1739652297.6813438,-4720,-14104,17404,-21887,532,32767
1739652297.6833503,-4216,-13476,17336,-19668,1607,32767
1739652297.6833503,-4244,-12720,17656,-17703,2798,32767
1739652297.6844766,-4304,-11620,17876,-15806,4125,32767
1739652297.6853554,-4360,-10380,18440,-14380,5327,32767
1739652297.6853554,-4960,-9340,18924,-13445,6073,32767
1739652297.6865728,-4888,2276,24324,-4865,3072,32767
1739652297.7906964,-4688,3616,25628,-5077,3255,32767
1739652297.7919247,-4936,4436,26420,-5450,4838,32767
1739652297.7919247,-9568,5476,25824,-6592,2213,32767
1739652297.8510756,-5872,6668,26984,-8837,-1359,32767
1739652297.8520765,-2584,6780,26920,-9735,3646,32767
1739652297.8520765,-3860,7216,26900,-10260,7030,32767
1739652297.8533204,-4904,6972,27316,-11174,8169,32767
1739652297.8533204,-6004,8456,25880,-11150,9665,32767
1739652297.8543324,-5840,9728,26304,-11771,6166,32767
1739652297.910483,-4220,10880,25724,-11917,6051,32767
1739652297.9113755,-3976,8760,25316,-12268,9055,32451
1739652297.912378,-2576,10584,24296,-12634,11994,31550
1739652297.912378,-2736,12592,23312,-12432,13674,29813
1739652297.9138675,-2880,12812,23592,-11503,13128,28449
1739652297.9148755,-3652,13744,22684,-10478,11837,27514
1739652297.915872,-3216,14044,21604,-9699,11783,26327
1739652297.9716475,-2892,14680,20404,-8765,12800,24708
1739652297.9716475,-2700,15052,19764,-7681,14039,23029
1739652297.9726853,-2344,14992,19504,-6363,14932,21596
1739652297.973641,-2608,15676,18804,-4751,15224,20123
1739652298.030868,-1952,15700,18624,-3355,15479,18844
1739652298.0317578,-1556,15960,18260,-1822,15659,17618
1739652298.0317578,-1176,15904,18168,-165,16140,16339
1739652298.0327554,-912,15524,18172,1279,16771,14755
1739652298.033828,-1320,16188,18388,2604,16946,13418
1739652298.0348392,-1252,16416,18924,3374,16957,12290
1739652298.0348392,-1180,16904,19048,3962,17068,11235
1739652298.0359871,-600,16656,19504,4441,17655,9799
1739652298.0369966,-80,16932,19828,4561,18573,8349
1739652298.0369966,220,16724,19720,4547,19657,6767
1739652298.0390577,852,16380,19604,4389,20447,5395
1739652298.0390577,17596,764,6676,32767,26652,-32768
1739652298.0400264,16872,1288,8472,32767,26097,-32768
1739652298.040996,16904,1220,11168,32767,25835,-32768
1739652298.0419958,16444,484,13984,32767,25489,-32768
1739652298.0419958,15432,-1084,15788,32095,25228,-32768
1739652298.0430071,15824,-1448,16788,27268,25221,-32768
1739652298.0441332,13680,-2428,19600,20647,27968,-32768
1739652298.0441332,14504,-3548,17288,14635,29566,-32768
1739652298.0461986,15692,-4988,17276,8651,32173,-32768
1739652298.0461986,17244,-6180,16532,2795,32767,-32768
1739652298.0472178,19640,-8292,14644,-2371,32767,-32768
1739652298.0472178,22360,-10428,12228,-6723,32767,-32768
1739652298.0492916,25264,-12260,9224,-10433,32767,-32768
1739652298.0492916,28512,-14736,6304,-13506,32767,-32768
1739652298.0503273,32280,-18552,3024,-15707,32767,-32768
1739652298.0512452,11528,-19796,-12680,-11274,17319,-12473
1739652298.0522578,11756,-19280,-14032,-13212,18459,-12196
1739652298.0536928,11740,-19084,-15764,-14811,18805,-11336
1739652298.0536928,11648,-19704,-16028,-15622,17474,-10042
1739652298.0906014,12172,-20088,-16776,-15902,16388,-9413
1739652298.1518521,12976,-20052,-16880,-16311,16315,-9230
1739652298.1518521,12704,-20796,-17448,-16225,16295,-9055
1739652298.1528432,12488,-21044,-17744,-15840,15775,-8549
1739652298.1528432,12748,-21824,-18284,-15064,15537,-8127
1739652298.1542077,13124,-22024,-19204,-13739,15813,-7771
1739652298.1542077,13136,-21556,-19756,-12025,15690,-7183
1739652298.1554856,13272,-21464,-20132,-9940,16026,-6858
1739652298.1567147,13080,-21272,-20476,-7145,15820,-6757
1739652298.1567147,12636,-20988,-21016,-4103,15830,-6884
1739652298.157723,12340,-20688,-21412,-1242,16610,-7234
1739652298.1587868,11708,-19684,-21080,1818,17041,-7665
1739652298.1597195,10780,-18860,-20092,5086,15892,-8099
1739652298.1607604,11188,-18200,-19384,7997,15463,-8533
1739652298.1607604,10732,-17772,-19392,10558,16023,-8926
1739652298.161721,9436,-17204,-18488,12684,16560,-9303
1739652298.162723,8396,-16472,-17508,14527,16642,-9307
1739652298.1637201,8064,-15752,-15908,15847,16660,-9312
1739652298.1637201,7380,-14932,-14608,16632,16647,-9206
1739652298.1650429,6816,-14204,-13140,17099,16613,-9217
1739652298.1660936,6660,-14168,-11748,16980,16703,-9290
1739652298.1660936,6772,-14636,-10440,16574,17024,-9628
1739652298.1681983,7032,-14860,-9308,15995,18043,-10226
1739652298.1681983,7148,-14860,-8632,15259,19235,-10764
1739652298.1692746,7196,-15228,-7832,14297,20771,-11358
1739652298.1700668,6696,-15920,-6452,13205,21560,-11930
1739652298.1700668,6836,-16820,-5384,11933,22007,-12377
1739652298.1716473,7040,-17796,-5008,10696,21618,-12978
1739652298.172657,7452,-18752,-5024,9622,21108,-13606
1739652298.172657,8400,-18824,-5740,8243,20883,-13825
1739652298.1747549,8852,-18832,-6700,6761,21007,-13768
1739652298.1747549,14060,-23104,-16120,7798,19454,-10303
1739652298.1757364,14704,-23520,-16968,9627,19097,-9688
1739652298.1766565,14764,-23020,-16732,11875,17855,-9038
1739652298.177667,13728,-22104,-16584,14013,17497,-7748
1739652298.1786816,14532,-21128,-16516,15570,16497,-7212
1739652298.2107744,14324,-20696,-16068,17223,16820,-6647
1739652298.2714067,13540,-19988,-14960,18618,16532,-5896
1739652298.2714067,12920,-19048,-13540,19747,16081,-5309
1739652298.2725234,12568,-18084,-11824,20489,15727,-4951
1739652298.2733743,12284,-17164,-10240,20897,15413,-4574
1739652298.2743838,11960,-16500,-8732,20928,14947,-4263
1739652298.2743838,12100,-15764,-7084,20681,14406,-3974
1739652298.2754886,12024,-15008,-5980,20124,13898,-3838
1739652298.2764976,12228,-14520,-4520,19447,13492,-3767
1739652298.2775004,12272,-14392,-3228,18690,13431,-3877
1739652298.2784996,12368,-14476,-2112,17837,13620,-4056
1739652298.2784996,12236,-14476,-1156,17046,13876,-4397
1739652298.2804992,12308,-14400,-276,16419,14122,-4777
1739652298.2804992,12428,-14556,112,15849,14257,-5163
1739652298.281503,12608,-14720,284,15379,14404,-5413
1739652298.281503,12908,-14872,344,15064,14750,-5634
1739652298.2827678,14444,-15500,204,14958,15662,-6067
1739652298.2827678,13536,-15664,-240,14933,16556,-6022
1739652298.2847862,13752,-15852,-716,14876,17032,-6022
1739652298.2847862,14456,-16212,-1100,14860,17885,-6102
1739652298.2857733,14644,-16696,-1624,15055,18623,-5800
1739652298.2867732,15148,-16864,-2396,15307,19277,-5462
1739652298.2867732,15756,-17184,-3376,15916,20415,-5124
1739652298.288259,16372,-17912,-4284,16795,21401,-4855
1739652298.288259,17048,-18576,-5164,18217,22460,-4432
1739652298.2896628,17480,-18984,-6128,19860,23287,-3834
1739652298.290752,18176,-19104,-6432,21623,24095,-3108
1739652298.291672,18364,-18596,-6748,23165,24753,-2300
1739652298.292711,18900,-18416,-6844,24519,25053,-1526
1739652298.292711,19000,-17956,-6672,25645,25609,-667
1739652298.2939386,18932,-17060,-6168,26554,25931,280
1739652298.2949476,16628,-11772,-4036,27622,25590,3282
1739652298.2949476,16024,-10976,-3240,27188,25037,3472
1739652298.2964146,15584,-9896,-2740,26494,24455,3568
1739652298.2964146,15128,-9192,-2000,25589,24016,3388
1739652298.2979,14512,-8616,-1548,24538,23535,3213
1739652298.3302813,14352,-8296,-936,23350,23157,2956
1739652298.3312256,14116,-8060,-516,22139,22583,2643
1739652298.332229,14008,-7720,4,20803,22137,2333
1739652298.3332293,13848,-7708,44,19358,21847,1984
1739652298.3332293,13924,-7792,236,17920,21777,1545
1739652298.3346527,13972,-7868,24,16579,21667,1041
1739652298.3356578,13912,-8128,-168,15396,21471,531
1739652298.3356578,14196,-8584,-368,14424,21184,15
1739652298.336661,14244,-8952,-836,13772,20659,-365
1739652298.337702,14396,-9352,-1440,13347,19937,-675
1739652298.390919,14604,-9628,-2108,13091,19345,-846
1739652298.390919,14672,-9668,-2812,12878,18834,-850
1739652298.3924098,15024,-9732,-3448,12664,18477,-766
1739652298.3924098,15388,-9872,-4120,12540,18369,-551
1739652298.3934166,15592,-10332,-4568,12575,18151,-304
1739652298.3947613,16112,-11132,-5028,12848,17761,-15
1739652298.3957667,16836,-11696,-5152,13383,17466,254
1739652298.3957667,17180,-12108,-5260,14271,17054,477
1739652298.3967683,17548,-12352,-5092,15356,16301,676
1739652298.3978999,17336,-12356,-4816,16487,15406,843
1739652298.398769,17024,-12044,-4296,17577,14752,794
1739652298.39982,16904,-11772,-3940,18479,14216,567
1739652298.39982,16516,-11416,-3684,19293,13690,170
1739652298.4009056,16112,-11164,-3144,20093,13150,-180
1739652298.4017715,15716,-10964,-2764,20818,12226,-552
1739652298.402768,15420,-11000,-2008,21520,11308,-1010
1739652298.402768,15188,-10892,-1584,22066,10386,-1510
1739652298.4042509,15024,-10816,-1052,22393,9462,-2003
1739652298.404607,14944,-10944,-720,22467,8477,-2506
1739652298.4057765,14976,-11268,-204,22375,7814,-2940
1739652298.4057765,14756,-11552,92,22084,7376,-3304
1739652298.4077828,14792,-12004,576,21610,7096,-3586
1739652298.4077828,14968,-12536,1096,21073,6690,-3745
1739652298.408886,15052,-13008,1352,20463,6261,-3909
1739652298.409787,15188,-13672,1544,19788,5646,-3925
1739652298.409787,15256,-14072,1756,19203,5053,-3913
1739652298.4110768,15424,-14848,1752,18728,4608,-3806
1739652298.4120831,15564,-15408,1616,18593,4204,-3528
1739652298.4505374,15944,-15996,1264,18764,3839,-3135
1739652298.451489,16320,-16536,876,19352,3410,-2600
1739652298.451489,16456,-17208,256,20340,2932,-1951
1739652298.4527493,16848,-17760,16,21636,2649,-1249
1739652298.510596,17100,-18260,-56,23027,2583,-511
1739652298.5124831,17320,-18284,-184,24612,2597,265
1739652298.5124831,17564,-18468,-8,26227,2752,997
1739652298.5138836,17616,-18536,80,27903,2939,1774
1739652298.5138836,17772,-18580,548,29479,3055,2526
1739652298.5149012,17652,-18352,524,30874,3075,3289
1739652298.5149012,17424,-18052,712,32230,2933,4046
1739652298.5149012,16956,-17616,872,32767,2874,4766
1739652298.5163624,16028,-17128,992,32767,2411,5587
1739652298.517566,15748,-16580,1464,32767,2332,6188
1739652298.518571,14952,-15940,2068,32767,2270,6737
1739652298.5198922,14256,-15300,2880,32767,1956,7225
1739652298.5198922,13628,-14456,3640,32767,1960,7387
1739652298.5210438,13224,-14024,4608,32767,1725,7421
1739652298.5210438,12712,-13736,5348,32767,1302,7401
1739652298.522228,12372,-13664,5720,32767,453,7407
1739652298.523498,12268,-13660,6216,31531,-431,7355
1739652298.523498,12364,-13692,6808,30243,-1291,7243
1739652298.5245879,12296,-13880,7112,28881,-2245,7145
1739652298.5245879,12484,-14212,7492,27604,-3379,7136
1739652298.5259964,12756,-14596,7820,26341,-4703,7235
1739652298.5259964,13084,-14916,8220,25114,-6236,7393
1739652298.5274498,13552,-15376,8824,23871,-7818,7663
1739652298.5284543,14224,-15932,9544,22626,-9407,8093
1739652298.5284543,14664,-16444,10052,21314,-10894,8482
1739652298.5299473,14980,-17068,10804,20027,-12074,8968
1739652298.5299473,15284,-17500,11552,18747,-13110,9428
1739652298.531436,15640,-18128,12172,17692,-14016,10008
1739652298.5325134,16036,-18560,12864,16860,-14750,10585
1739652298.5336332,16444,-19244,12816,16224,-15126,11241
1739652298.5336332,16852,-19792,13072,16122,-15279,11980
1739652298.5349078,16944,-20324,13284,16327,-15664,12851
1739652298.5369136,17480,-20460,13348,16902,-15977,13859
1739652298.5369136,17772,-20796,13376,17652,-16234,14842
1739652298.537913,17884,-20772,13692,18683,-16037,15731
1739652298.537913,17340,-20576,13628,19848,-15768,16730
1739652298.5390522,16968,-20420,13596,20929,-15567,17812
1739652298.5390522,16720,-20064,13912,22120,-14581,18637
1739652298.540493,16108,-19408,13900,23349,-13838,19430
1739652298.5706427,15376,-18588,13696,24466,-13126,20058
1739652298.571643,14900,-18012,13572,25503,-12151,20529
1739652298.571643,14316,-17312,13664,26530,-10949,20724
1739652298.573073,13484,-16460,13792,27448,-11354,20803
1739652298.573073,12956,-15948,14116,28514,-10123,21129
1739652298.5745692,12716,-15044,14764,29072,-9690,21243
1739652298.5756812,12636,-14976,15184,29617,-9469,21021
1739652298.5756812,11992,-14304,15756,29862,-9556,20872
1739652298.5768132,12044,-14092,16020,29671,-9355,20619
1739652298.577856,12176,-14068,16212,28940,-8706,20315
1739652298.577856,12196,-14756,16276,28132,-7997,20375
1739652298.5789673,11872,-14840,17132,27256,-8456,21029
1739652298.580037,11952,-15356,17760,26280,-9561,21725
1739652298.630579,11972,-15704,18496,25386,-11076,22484
1739652298.631501,11884,-16128,19300,24447,-12432,23250
1739652298.6325312,11924,-16656,19904,23360,-13456,24047
1739652298.6325312,11868,-16832,20324,22155,-14548,24916
1739652298.6340156,12096,-17136,20436,20869,-15830,25662
1739652298.635019,12452,-17380,20968,19725,-16035,26547
1739652298.635019,13128,-18196,21012,18480,-16651,27294
1739652298.636407,13284,-18556,21208,17645,-17234,28050
1739652298.6374128,13236,-18660,21696,16943,-18223,28745
1739652298.6374128,13412,-18648,22356,16305,-18530,29341
1739652298.6384733,13568,-18452,22648,15797,-18172,29843
1739652298.639643,13592,-18596,22920,15060,-18030,30533
1739652298.6406517,13460,-18696,22892,14576,-18035,31360
1739652298.6406517,13164,-18576,23152,14238,-17715,31969
1739652298.6431093,12320,-18124,23204,13935,-17238,32559
1739652298.6431093,12676,-18100,23136,13678,-16447,32767
1739652298.6444392,12808,-18268,22948,13619,-15696,32767
1739652298.6454475,11344,-18236,23204,13720,-14864,32767
1739652298.6464517,11512,-18000,23052,13960,-14234,32767
1739652298.6464517,11016,-17548,22848,14224,-13637,32767
1739652298.6478367,11252,-17036,22900,14630,-12782,32767
1739652298.6912277,11408,-16568,22996,14972,-11674,32767
1739652298.6912277,11456,-16540,23060,15346,-10402,32767
1739652298.6922154,11100,-16288,23504,15637,-9353,32767
1739652298.6932902,9940,-15864,23628,16120,-8946,32767
1739652298.6943078,9776,-15240,24192,16112,-8768,32767
1739652298.6943078,9436,-15248,24244,16288,-8420,32767
1739652298.6952963,9328,-14924,24640,16140,-8083,32767
1739652298.6952963,9076,-15052,24780,15925,-7669,32767
1739652298.6967576,9244,-14896,25188,14905,-7014,32767
1739652298.6978867,8616,-15096,25152,14225,-7143,32767
1739652298.6988168,8272,-14580,25648,12873,-7055,32767
1739652298.699766,8692,-14904,25604,11046,-5849,32767
1739652298.699766,7496,-15164,25692,9641,-5800,32767
1739652298.7011352,6868,-14932,26400,7858,-5841,32767
1739652298.7021396,7100,-15068,27020,6141,-5060,32767
1739652298.7021396,6420,-15484,27036,4566,-5205,32767
1739652298.7031395,6100,-15516,27084,2702,-5892,32767
1739652298.704142,6100,-15964,27444,1361,-6583,32767
1739652298.7052374,6136,-15708,27108,18,-8216,32767
1739652298.7052374,5372,-15792,26600,-417,-8723,32767
1739652298.7072847,4652,-15968,26904,-1343,-9004,32767
1739652298.751126,3560,-15780,26088,-2409,-9280,32767
1739652298.751126,2956,-15660,25316,-3244,-9870,32767
1739652298.7524576,3508,-15888,25212,-3902,-9084,32767
1739652298.8712595,2752,-15816,24876,-4391,-8763,32767
1739652298.872259,2356,-15236,24380,-4380,-9009,32767
1739652298.872259,4632,-15380,24516,-4382,-9231,32767
1739652298.872259,4520,-14760,25048,-4641,-8725,32767
1739652298.8736985,5304,-14908,24160,-4887,-8608,32767
1739652298.8748825,5956,-15552,23896,-4989,-8175,32767
1739652298.8758936,5524,-15216,24152,-5252,-8228,32767
1739652298.8758936,5252,-15600,23644,-5439,-7687,32767
1739652298.8771892,4852,-15884,23580,-5936,-7848,32767
1739652298.8781989,4164,-15632,23740,-6703,-7773,32767
1739652298.8781989,3800,-15384,23996,-7601,-7994,32767
1739652298.8792753,3300,-14920,24200,-8865,-8374,32767
1739652298.8801959,2696,-15196,24032,-10163,-8861,32767
1739652298.8812866,2692,-15764,24220,-11273,-9769,32767
1739652298.8812866,2488,-16136,24508,-12538,-10843,32767
1739652298.883199,2788,-16612,24956,-13737,-11631,32767
1739652298.883199,3216,-16964,25068,-14921,-11963,32767
1739652298.8841996,3732,-17548,24828,-15709,-12350,32767
1739652298.885254,4104,-17964,24308,-16142,-12497,32767
1739652298.885254,5188,-19692,21840,-15377,-12331,32767
1739652298.8863542,5424,-18812,23020,-14935,-11591,32767
1739652298.8874652,6076,-17284,25440,-15328,-10380,32767
1739652298.8884652,5340,-15732,25800,-15753,-10188,32767
1739652298.8893607,5484,-15332,26444,-16107,-9734,32767
1739652298.890364,5248,-15768,26504,-16284,-9330,32767
1739652298.890364,4640,-15432,26024,-16362,-8612,32767
1739652298.8916183,3732,-15252,25784,-16603,-8320,32767
1739652298.89263,2532,-14296,25608,-17026,-8445,32767
1739652298.89263,1912,-13424,25536,-17648,-8503,32767
1739652298.8936262,148,-12088,24120,-17706,-9438,32767
1739652298.8947706,-256,-11476,24980,-17611,-10395,32767
1739652298.8956268,-8,-15260,24060,-16262,-8746,32767
1739652298.8966267,368,-15084,24072,-14295,-7713,32767
1739652298.8966267,416,-15080,24120,-12266,-6726,32767
1739652298.8976269,428,-15092,24288,-10367,-5922,32767
1739652298.8987076,336,-14812,24292,-8596,-5203,32767
1739652298.9311976,92,-14716,24552,-6985,-4611,32767
1739652298.9311976,-160,-14304,24228,-5592,-4294,32767
1739652298.9324992,-784,-13656,24980,-4617,-4047,32767
1739652298.9324992,-964,-13136,26024,-4350,-3946,32767
1739652298.9335053,-580,-12928,26904,-4726,-3880,32767
1739652298.9348114,-496,-12484,27520,-5644,-3688,32767
1739652298.9348114,-824,-12272,27992,-7092,-3921,32767
1739652298.9358208,-1688,-11832,28232,-8731,-4462,32767
1739652298.936969,-2248,-11704,28520,-10474,-4663,32767
1739652298.9379735,-2280,-11604,29128,-12440,-5186,32767
1739652298.938974,-1364,-11620,29476,-14318,-4659,32767
1739652298.938974,-2480,-11072,29360,-16172,-5774,32767
1739652298.939974,-2288,-10808,29660,-17738,-6647,32767
1739652298.9412022,-1508,-11064,29660,-19220,-7537,32767
1739652299.111206,-1116,-11328,29028,-20019,-8014,32767
1739652299.111206,-1084,-11484,29044,-20402,-7758,32767
1739652299.112655,-1104,-11720,29076,-20227,-7631,32767
1739652299.112655,-632,-12304,28896,-19835,-7550,32767
1739652299.1723714,-60,-12412,29812,-18970,-6660,32767
1739652299.1723714,-332,-12020,30184,-18067,-6073,32767
1739652299.173375,732,-11856,30888,-16900,-4222,32767
1739652299.173375,384,-11460,30400,-15643,-3709,32767
1739652299.1748269,2124,-11560,29812,-13791,-1217,32767
1739652299.1758344,-1064,-10040,29560,-12342,-1979,32767
1739652299.1768334,2408,-10356,29840,-10532,1232,32767
1739652299.2309217,2844,-10144,30508,-8626,3543,32767
1739652299.2318382,1380,-9592,30632,-7166,4873,32767
1739652299.2318382,1244,-8372,30244,-6224,6232,32767
1739652299.2910178,1948,-6768,30124,-5467,8373,32767
1739652299.2910178,1528,-5512,30336,-5022,9985,32767
1739652299.292463,836,-4328,30200,-5056,10466,32767
1739652299.293472,1192,-3584,29844,-5347,11367,32767
1739652299.293472,776,-2828,29632,-5940,12056,32767
1739652299.2947228,20,-2064,29300,-7022,12215,32767
1739652299.2952642,-100,-1608,28852,-8345,12426,32767
1739652299.2959783,-632,-1012,28336,-9920,12381,32767
1739652299.2969851,-1380,-92,25964,-11163,10851,32767
1739652299.2969851,36,508,26168,-12464,10904,32767
1739652299.2985797,84,732,26508,-14278,10950,32767
1739652299.2985797,-368,1652,26904,-16349,10815,32767
1739652299.3005855,-1028,2472,27200,-18541,10259,32767
1739652299.3005855,-772,2576,26688,-20758,9897,32767
1739652299.3016768,-928,1980,25344,-21963,9439,32767
1739652299.3016768,-768,1692,24628,-22581,9202,32767
1739652299.3028357,-736,1448,24052,-22792,9177,32767
1739652299.3040462,23904,732,21216,20837,32767,-32768
1739652299.3050528,23500,2272,16016,21610,32767,-32768
1739652299.3050528,24576,952,15264,23011,32767,-32768
1739652299.306106,26532,-620,13256,24187,32767,-32768
1739652299.3071103,26804,-1880,12084,25556,32767,-32768
1739652299.308078,26740,-3944,11468,26459,32767,-32768
1739652299.308078,27472,-4476,10728,26872,32767,-32768
1739652299.3090518,27052,-5460,9800,26675,32767,-32768
1739652299.3104308,27456,-6584,7496,26028,32767,-32768
1739652299.311527,30504,-7940,6196,25193,32767,-32768
1739652299.311527,27740,-8328,4648,23587,32767,-32768
1739652299.3125744,31688,-10564,3516,21872,32767,-32768
1739652299.3125744,28400,-11080,1780,19124,32767,-31549
1739652299.3140008,27740,-12636,-1524,16557,32767,-31261
1739652299.315007,22844,-12920,-17580,29281,32015,-15296
1739652299.3160586,22248,-12072,-15172,32767,31657,-14859
1739652299.3170073,21164,-11372,-11992,32767,31418,-14310
1739652299.3170073,20188,-9580,-9492,32767,30860,-14007
1739652299.318463,19056,-9044,-7484,32767,30582,-14105
1739652299.350887,17928,-7896,-5796,32767,30234,-14351
1739652299.350887,16912,-7576,-4792,32767,30083,-14845
1739652299.3521705,16500,-7220,-4300,32767,30696,-15793
1739652299.3531775,15832,-7360,-3872,32767,31427,-16578
1739652299.3531775,15504,-7812,-2728,32767,32171,-17557
1739652299.3546207,15668,-8396,-1968,32767,32767,-18739
1739652299.3557243,15432,-9612,-1240,32767,32767,-20820
1739652299.3566287,15472,-8752,-1308,32767,32767,-22309
1739652299.3576329,16052,-9468,-2108,32767,32767,-22367
1739652299.3576329,16460,-10000,-1708,32767,32767,-22356
1739652299.4107077,16680,-10784,-1316,32767,32767,-22137
1739652299.4115958,16512,-10736,-1604,32767,32767,-21813
1739652299.412596,17084,-11412,-1480,32767,32767,-21627
1739652299.412596,17612,-11740,-1424,32767,32767,-21486
1739652299.413593,17088,-11700,-1548,32767,32767,-21194
1739652299.4146993,17444,-11824,-1400,32767,32767,-21081
1739652299.415746,17928,-12688,-992,32767,32767,-20856
1739652299.416708,18052,-13092,-1200,32767,32767,-20768
1739652299.416708,18720,-14288,-1212,32767,32767,-20895
1739652299.4180746,19168,-15220,-772,32767,32394,-20835
1739652299.4180746,18552,-14888,-948,32767,31799,-20900
1739652299.4192939,18400,-15256,-604,32767,31236,-20978
1739652299.4203434,18012,-15060,-428,32767,30974,-21154
1739652299.4212987,17048,-14120,-372,32767,30686,-21210
1739652299.4223022,17240,-14432,884,32767,30464,-21375
1739652299.4223022,17224,-14272,1844,32767,30020,-21533
1739652299.4235406,17108,-14092,2364,32767,29453,-21744
1739652299.424575,17080,-14084,3016,32767,28758,-22025
1739652299.425546,17176,-14168,3316,32767,28125,-22433
1739652299.425546,17120,-14480,3468,32767,27640,-22915
1739652299.4265482,17040,-14880,3624,31888,27177,-23405
1739652299.4276552,17104,-15324,3816,30658,26878,-23957
1739652299.4286096,16928,-15776,3996,29423,26754,-24450
1739652299.4286096,17228,-16404,4596,28017,26837,-24916
1739652299.4301026,17960,-17028,4344,26577,26918,-25179
1739652299.4301026,17984,-17020,4252,25350,27542,-25649
1739652299.4311094,17920,-17792,3756,24329,28149,-26255
1739652299.4326184,18112,-18200,3592,23418,28930,-26865
1739652299.4715598,18532,-18768,3796,22531,29716,-27417
1739652299.4715598,18780,-19364,3832,21563,30220,-27714
1739652299.4715598,18764,-20060,3492,20867,30880,-28141
1739652299.4725494,18688,-20876,3680,20376,31168,-28682
1739652299.4739912,19272,-22316,4060,19793,31048,-29000
1739652299.4750004,20352,-23088,4184,19080,30951,-29340
1739652299.4750004,21280,-23728,3604,18574,31220,-29660
1739652299.4760041,23228,-24048,2676,18087,31887,-29582
1739652299.4770586,24752,-24876,1448,17781,32073,-29030
1739652299.4781103,26224,-26340,868,17325,31513,-28032
1739652299.4781103,27540,-27692,176,16760,30827,-26840
1739652299.4795501,28056,-31032,-1392,16755,29686,-25628
1739652299.4795501,27864,-31616,-2620,16603,29383,-24554
1739652299.4815571,28884,-27672,-2816,15538,29712,-23713
1739652299.4815571,28536,-30228,-5224,15065,29295,-22334
1739652299.4825573,28532,-30444,-6508,14918,28654,-20759
1739652299.4836893,28648,-30016,-6980,15035,28148,-19345
1739652299.530964,27264,-29012,-7096,15372,27137,-18266
1739652299.5329545,26348,-28236,-6820,15821,26242,-17561
1739652299.5329545,25312,-27340,-7120,16482,25640,-17020
1739652299.5342164,24156,-25940,-6796,16868,25170,-16605
1739652299.5342164,21976,-24604,-5760,16878,24136,-16598
1739652299.5342164,20880,-23768,-4688,16696,23363,-16732
1739652299.5365791,19816,-22984,-3612,16083,22378,-17147
1739652299.5365791,18948,-22276,-2944,15411,21431,-17583
1739652299.5365791,18136,-21380,-2068,14139,20310,-18048
1739652299.5380309,17976,-20792,-1140,12466,19237,-18338
1739652299.5390446,17032,-20104,-576,10336,17840,-18830
1739652299.5390446,17060,-20292,144,7793,16295,-19020
1739652299.540462,16960,-20360,224,5390,14676,-19367
1739652299.540462,17452,-20704,-124,3373,13481,-19511
1739652299.541996,17468,-20788,240,1670,12244,-19482
1739652299.5432522,17732,-21240,-200,395,11457,-19288
1739652299.5432522,18156,-21556,-1036,-274,10634,-19049
1739652299.5444376,18228,-21956,-1868,-202,9624,-19038
1739652299.5444376,18764,-22212,-2276,584,8618,-18944
1739652299.5456138,19048,-22220,-2804,1727,8000,-18813
1739652299.5470676,19348,-22368,-3080,3282,7513,-18645
1739652299.5908685,19808,-22624,-3432,5179,7340,-18310
1739652299.5919929,20220,-23304,-3512,7298,7330,-18040
1739652299.5919929,20692,-24104,-3432,9541,7494,-17768
1739652299.592999,20732,-24952,-3412,11764,7661,-17510
1739652299.594001,20836,-25464,-3036,13865,7964,-17449
1739652299.5950065,20708,-26176,-2860,15767,8387,-17491
1739652299.5950065,20508,-27196,-2648,17424,8868,-17610
1739652299.5963628,20224,-28196,-2236,18752,9459,-17711
1739652299.5963628,19760,-28740,-1692,19435,9905,-17799
1739652299.5977316,19464,-29128,-1300,19478,10140,-17724
1739652299.598986,19260,-29944,-620,18925,10182,-17558
1739652299.598986,18924,-30368,0,17800,10011,-17366
1739652299.6002111,18816,-30896,992,16022,9624,-17028
1739652299.6012816,18312,-31644,1484,14047,8889,-16586
1739652299.6032863,18028,-32244,1412,11735,8246,-16062
1739652299.6032863,17908,-32768,1504,9330,7616,-15489
1739652299.6044638,17380,-32768,816,7116,7173,-15018
1739652299.6044638,17012,-32768,760,5032,6701,-14341
1739652299.6044638,16896,-32768,952,3166,6117,-13578
1739652299.605815,16276,-32768,88,1779,5545,-12922
1739652299.6505299,16472,-32768,-576,774,5125,-12180
1739652299.6515398,17076,-32768,-1632,172,4914,-11502
1739652299.6515398,18812,-32768,-2576,-59,5294,-10510
1739652299.6527328,18156,-32260,-3304,-41,5120,-9694
1739652299.653738,18108,-32008,-3656,301,4881,-9058
1739652299.654948,16832,-31476,-4660,1033,4289,-8908
1739652299.654948,17364,-31068,-5016,1919,3873,-8604
1739652299.6561036,18692,-30592,-5548,2890,3814,-8009
1739652299.6569538,18088,-29904,-6188,4320,3607,-7864
1739652299.6579635,17936,-29364,-6532,5719,3468,-7516
1739652299.6579635,18304,-28740,-6660,7091,3374,-7250
1739652299.6592064,17696,-28204,-6960,8601,3181,-6956
1739652299.6602395,17628,-27404,-7268,10154,3161,-6839
1739652299.6602395,17908,-27196,-6860,11707,2925,-6599
1739652299.6612444,17792,-26696,-6496,13238,2596,-6365
1739652299.662302,17948,-26128,-5596,14493,2074,-6019
1739652299.6632438,17844,-25524,-4848,15497,1469,-5616
1739652299.664277,17432,-25060,-3652,16046,731,-5212
1739652299.664277,17156,-24636,-2616,16341,105,-4825
1739652299.6658206,16628,-24096,-1376,16210,-516,-4447
1739652299.7112617,16040,-23620,-168,16085,-1180,-4098
1739652299.7112617,15896,-23364,628,15664,-1740,-3653
1739652299.7112617,15008,-22872,1552,15117,-2435,-3173
1739652299.7125516,14888,-22208,2232,14620,-3038,-3045
1739652299.714037,14020,-21676,2564,14296,-4076,-2868
1739652299.7150455,13752,-21360,3172,13933,-4702,-2933
1739652299.7150455,13732,-21572,3132,13738,-5293,-2851
1739652299.7161844,13124,-20836,3668,13472,-5675,-2961
1739652299.7171888,13648,-20700,3768,13262,-5660,-2919
1739652299.7181914,13372,-20444,4012,13132,-5525,-2968
1739652299.7181914,13500,-20260,4612,12904,-5412,-2902
1739652299.7707033,13224,-19692,5540,12442,-5543,-2878
1739652299.7715857,13796,-19292,6284,11664,-5698,-2554
1739652299.7715857,13576,-18960,6668,10856,-5963,-2404
1739652299.7730882,13252,-18784,6788,10097,-6322,-2383
1739652299.7730882,13120,-18784,6636,9444,-6521,-2558
1739652299.7743604,13632,-18700,6232,8908,-6508,-2736
1739652299.775365,13832,-18748,5924,8499,-6385,-2916
1739652299.7763686,13728,-18688,5300,8242,-6346,-3193
1739652299.7773678,14344,-18564,5384,7962,-6240,-3379
1739652299.7773678,14476,-18752,5324,7717,-6361,-3564
1739652299.778442,14928,-18840,5332,7362,-6439,-3558
1739652299.7793653,15236,-19192,5236,7036,-6812,-3528
1739652299.7804425,15632,-19448,4884,6777,-7131,-3466
1739652299.7804425,15804,-19832,4904,6337,-7538,-3249
1739652299.7813668,16184,-20104,4576,5843,-7891,-3003
1739652299.7823696,16312,-20104,4336,5330,-8266,-2760
1739652299.7833664,16612,-20228,4084,4810,-8803,-2388
1739652299.7833664,17028,-20368,3692,4439,-9380,-1928
1739652299.7843711,17044,-20360,3384,4213,-10111,-1432
1739652299.785369,17188,-20284,3272,4096,-10895,-893
1739652299.78649,17264,-20216,2872,4190,-11689,-286
1739652299.7874997,17056,-20208,2276,4458,-12466,248
1739652299.7874997,17144,-20224,2072,4939,-13075,787
1739652299.7885365,17228,-20328,2000,5637,-13678,1309
1739652299.7896023,17120,-20284,1696,6541,-14204,1865
1739652299.79059,17124,-20340,1644,7630,-14734,2305
1739652299.79059,16956,-20236,1548,8877,-15199,2750
1739652299.7914972,16916,-20272,1768,10163,-15482,3124
1739652299.7924967,16960,-20224,2172,11560,-15679,3483
1739652299.7934964,16908,-20264,2484,12884,-15753,3775
1739652299.7944965,16928,-20576,3052,14131,-15946,4043
1739652299.7955265,16928,-21240,3672,15350,-16279,4362
1739652299.830601,17184,-21824,4472,16380,-16528,4755
1739652299.831497,17432,-22188,5636,17015,-16771,5155
1739652299.8325355,17796,-22864,6352,17436,-17047,5631
1739652299.8334963,18212,-23924,7044,17653,-17243,6192
1739652299.8334963,18700,-24436,8264,17610,-17524,6805
1739652299.8347633,19040,-25308,8728,17389,-17828,7576
1739652299.8357801,19348,-25588,9524,17009,-17832,8443
1739652299.8357801,19264,-26240,10268,16407,-18223,9400
1739652299.837146,19116,-26200,10608,15713,-18270,10413
1739652299.8381803,18680,-25892,11236,14956,-18244,11440
1739652299.8381803,18016,-25644,11400,14181,-18253,12368
1739652299.8401563,17564,-25348,11292,13452,-18294,13121
1739652299.8401563,17172,-24744,11120,12772,-18639,13805
1739652299.8412547,16728,-24276,10748,12195,-18450,14315
1739652299.8421917,16520,-23792,10284,11707,-18540,14730
1739652299.8431582,15940,-23248,10004,11282,-18500,14994
1739652299.8910184,15584,-22768,9820,10741,-18227,15195
1739652299.8920264,15164,-22232,9640,10050,-18072,15361
1739652299.8920264,14812,-21716,9500,9309,-18068,15465
1739652299.8930187,14600,-21716,9152,8429,-18125,15521
1739652299.8942847,14452,-21860,8924,7635,-18593,15551
1739652299.8942847,14768,-22020,8184,6896,-19029,15640
1739652299.8953087,15096,-22380,7072,6363,-19751,15804
1739652299.8963363,15672,-22824,6124,6114,-20439,16042
1739652299.8973558,16084,-23052,4928,6136,-21127,16407
1739652299.8973558,16216,-23144,4348,6380,-21793,16831
1739652299.8983178,16572,-23096,4268,6712,-22593,17319
1739652299.8993175,16876,-22984,4140,7070,-23389,17872
1739652299.9003165,17092,-22860,4412,7356,-24081,18481
1739652299.9013586,16984,-22712,4764,7617,-24602,19165
1739652299.9013586,16928,-22380,4968,7879,-24997,19913
1739652299.9023197,16768,-22012,5196,8159,-25377,20658
1739652299.903357,16556,-21464,5464,8401,-25719,21430
1739652299.903357,15984,-21072,5776,8720,-26146,22113
1739652299.9055965,15356,-20708,5636,9205,-26512,22609
1739652299.9055965,15064,-20008,5696,9715,-26631,23013
1739652299.9065588,14560,-19436,5336,10413,-26688,23359
1739652299.9512384,13608,-18936,5828,11146,-26944,23568
1739652299.9512384,13256,-18340,6012,11964,-26971,23704
1739652299.9522302,13000,-17684,5608,12866,-26780,23763
1739652299.9532318,12572,-16432,6116,13617,-26438,23692
1739652299.9542308,12744,-15784,6516,14296,-26054,23662
1739652299.9542308,12328,-15736,6192,15154,-25810,23686
1739652299.9557068,12032,-15240,6848,15810,-25752,23585
1739652299.9557068,11636,-14688,6928,16468,-25718,23449
1739652299.9578037,11300,-14916,7448,16650,-25843,23298
1739652299.9578037,11140,-15224,7728,17035,-26108,23133
1739652299.958761,11840,-15808,7868,17202,-26044,23229
1739652299.9597166,11324,-16084,7772,17567,-25924,23243
1739652299.9607966,11536,-16276,8608,17732,-25812,23287
1739652299.9607966,11388,-16348,9764,17645,-25879,23361
1739652299.9620905,11032,-16060,10992,17163,-26129,23533
1739652299.9631112,10656,-16188,11796,16293,-26387,23489
1739652299.9631112,11556,-16380,12492,14874,-26255,23514
1739652299.9651113,10816,-17012,13272,13675,-26943,23689
1739652299.9651113,11560,-17236,13688,11931,-27219,23732
1739652299.9662344,11748,-17228,13616,10196,-28104,23963
1739652300.0122042,11460,-17700,13976,8901,-28303,23963
1739652300.0122042,11388,-17836,14816,7279,-28844,24079
1739652300.0122042,11276,-18460,14496,5805,-29406,24221
1739652300.0122042,10872,-18660,14476,4573,-29889,24213
1739652300.0135672,10024,-18572,14100,3511,-30234,24336
1739652300.0145772,9856,-18288,13880,2620,-30333,24542
1739652300.0155766,9532,-18432,13424,2074,-30237,24729
1739652300.0155766,9152,-18256,13384,1834,-30173,24800
1739652300.0165756,9128,-18032,12848,1805,-29844,24878
1739652300.0175738,8132,-17592,12864,1980,-29563,24823
1739652300.0185788,7736,-17320,12776,2312,-29240,24747
1739652300.0195782,7236,-17180,13080,2628,-28831,24552
1739652300.020575,6992,-17056,13144,2846,-28185,24344
1739652300.020575,6660,-16876,13060,3078,-27769,24132
1739652300.021861,6272,-16860,13004,3378,-27300,23951
1739652300.0228732,6068,-16896,12784,3701,-27017,23804
1739652300.0228732,5636,-17144,12304,3964,-26738,23732
1739652300.024255,5336,-17640,11796,4178,-26588,23638
1739652300.0252612,4876,-18068,11668,4161,-26642,23581
1739652300.0262666,4840,-18132,11528,3780,-26935,23656
1739652300.0713003,5016,-18372,10996,3140,-27493,23847
1739652300.0723047,5040,-18804,10500,2360,-28315,24133
1739652300.0723047,5056,-19456,10008,1630,-29221,24528
1739652300.073269,4784,-20044,9816,883,-30133,24883
1739652300.0742664,4300,-20360,9312,285,-30754,24951
1739652300.0742664,4720,-20748,9304,-381,-31227,24947
1739652300.0753553,4552,-21444,9324,-1249,-32276,24970
1739652300.076258,5028,-22088,9500,-2301,-32768,24848
1739652300.0773478,5636,-22840,9240,-3174,-32768,25041
1739652300.0773478,5728,-22888,8812,-3662,-32768,24786
1739652300.078366,6704,-23532,9084,-4088,-32768,24172
1739652300.079258,5816,-23792,8960,-4439,-32768,24203
1739652300.080257,4316,-23760,9044,-4822,-32768,24508
1739652300.0812562,5644,-23724,9640,-5393,-32768,25004
1739652300.0812562,4916,-24188,9172,-5744,-32768,25139
1739652300.0822546,5096,-24876,8980,-5895,-32768,25335
1739652300.0832841,5280,-25328,8708,-5780,-32768,25368
1739652300.0842557,5416,-25504,8644,-5432,-32768,25357
1739652300.0842557,5484,-25384,8492,-4803,-32768,25392
1739652300.0862591,5428,-25512,8060,-3956,-32768,25614
1739652300.1312685,5508,-25548,8172,-2847,-32347,25679
1739652300.132218,5948,-25648,7856,-1423,-31388,26049
1739652300.1332202,6248,-26128,7748,19,-30948,26654
1739652300.1332202,6644,-25820,8140,1514,-30609,27487
1739652300.1342156,6720,-25364,8120,2917,-30453,28402
1739652300.1342156,7108,-24872,8636,4211,-30152,29420
1739652300.1352823,7272,-24560,8540,5402,-30224,30393
1739652300.1362164,7788,-24488,8484,6675,-30238,31411
1739652300.1917002,8296,-24140,8464,7996,-30081,32448
1739652300.1926148,8392,-23648,8324,9448,-29771,32767
1739652300.1926148,8332,-22856,8936,10591,-29693,32767
1739652300.1936035,8000,-22212,9548,11548,-29519,32767
1739652300.1936035,7508,-21068,10536,12208,-29671,32767
1739652300.1955984,6604,-20288,10980,12709,-29943,32767
1739652300.1955984,8116,-20884,11756,13057,-30001,32767
1739652300.1966069,7012,-20428,12528,13165,-30524,32767
1739652300.1966069,6556,-19992,13684,13042,-31169,32767
1739652300.1976972,8784,-20652,14624,12865,-31258,32482
1739652300.1986907,9396,-20664,15836,12548,-31359,32403
1739652300.1995971,8908,-20348,17532,12053,-31409,32365
1739652300.2005985,7004,-20952,19276,11539,-32171,32166
1739652300.2016864,7324,-20644,21252,11122,-32768,31692
1739652300.2016864,7448,-21416,23684,10276,-32768,32084
1739652300.2035964,7216,-21680,25084,9352,-32620,32310
1739652300.2035964,6820,-20628,25016,9023,-32084,32683
1739652300.2045946,6304,-20368,25872,9094,-31702,32684
1739652300.2045946,8432,-20724,27936,8955,-30807,32767
1739652300.2057023,6800,-20744,29172,8395,-29354,32767
1739652300.2066438,6720,-19908,31028,7872,-28733,32767
1739652300.2075963,8412,-19340,32767,6841,-27817,32767
1739652300.2086835,11056,-18524,32767,5611,-25090,32767
1739652300.2086835,8128,-17684,32767,4505,-22498,32767
1739652300.209692,1468,-17868,32767,4129,-22997,32767
1739652300.2107105,4372,-16736,32767,3635,-22073,32767
1739652300.2115986,7024,-16112,32767,2757,-21363,32767
1739652300.2126393,9312,-14488,32767,1903,-18414,32767
1739652300.2136059,8360,-13568,32767,819,-15106,32767
1739652300.2136059,5560,-13520,32560,274,-12953,32767
1739652300.2145991,5420,-13240,32600,-628,-11809,32767
1739652300.2156086,5108,-12280,32496,-1274,-10266,32767
1739652300.216603,5988,-11496,31780,-1553,-8123,32767
1739652300.217603,5952,-10128,30080,-1622,-6369,32767
1739652300.2509642,7116,-9600,29000,-1264,-4651,32767
1739652300.2519877,5332,-9408,28320,-1330,-4995,32767
1739652300.252985,4580,-8040,28484,-1760,-4799,32767
1739652300.252985,3864,-7504,28268,-1869,-2012,32767
1739652300.2539756,3836,-7352,27648,-1925,-525,32767
1739652300.2549715,2340,-6676,28148,-2925,-999,32767
1739652300.2549715,1324,-5852,29232,-4650,-829,32141
1739652300.2569733,2048,-5944,28532,-5828,1209,30820
1739652300.2569733,1592,-6840,28004,-6601,1395,30250
1739652300.2580187,984,-7000,28204,-7848,836,30150
1739652300.259066,-400,-6676,28064,-9270,-114,30196
1739652300.259066,-664,-6708,28140,-10435,-376,29767
1739652300.2599745,-792,-7888,27544,-11054,-81,29194
1739652300.2610388,-1076,-8924,27048,-11499,307,28902
1739652300.262158,-1980,-9620,26712,-11700,279,28676
1739652300.262158,-2276,-10012,26540,-11823,177,28761
1739652300.2640526,-3340,-10376,26268,-11706,108,28512
1739652300.310989,-3092,-11156,25780,-11369,311,28278
1739652300.3119402,-3132,-11980,25000,-10768,692,27944
1739652300.3119402,-3620,-11912,24308,-9779,1265,27267
1739652300.3129354,-3724,-12556,23840,-8690,1888,27036
1739652300.3139405,-4508,-12612,23760,-7518,2336,26909
1739652300.3149343,-4488,-12412,23616,-6340,2725,26867
1739652300.3159692,-4312,-12216,23428,-5255,3401,27014
1739652300.3159692,-3324,-12184,23536,-4174,4249,27307
1739652300.316992,-3804,-11736,23348,-3286,4937,27407
1739652300.3179555,-4396,-11012,22976,-2559,5327,27318
1739652300.3189352,-4204,-10708,22668,-2151,5642,27053
1739652300.3189352,-4268,-10100,22476,-2071,5941,26771
1739652300.319932,-4484,-9256,22064,-2193,6070,26522
1739652300.3209288,-3904,-8880,21812,-2443,6318,26308
1739652300.3219285,-3664,-8404,21528,-2722,6395,26193
1739652300.3219285,-4096,-7648,21412,-3011,6508,25795
1739652300.3229291,-3856,-7712,20960,-3245,6446,25546
1739652300.3239286,-4344,-6960,20892,-3543,6412,25043
1739652300.324932,-4744,-7092,20388,-3763,6348,24594
1739652300.324932,-4948,-7100,20340,-4059,6409,24202
1739652300.3259284,-4912,-7140,20004,-4331,6616,23841
1739652300.3711123,-4720,-7120,19764,-4456,6603,23503
1739652300.3711123,-4428,-7472,19408,-4483,6547,23302
1739652300.372112,-4596,-7692,19100,-4353,6232,23198
1739652300.3731098,-4624,-7828,19200,-4163,5993,23053
1739652300.3741086,-4564,-7800,19472,-3977,5998,22946
1739652300.3741086,-4136,-7752,19856,-3822,6271,22915
1739652300.3751116,-3904,-7624,20200,-3705,6570,23005
1739652300.376171,-3756,-7424,20484,-3505,6936,23083
1739652300.3771713,-3648,-7176,20928,-3312,7383,23186
1739652300.378207,-3768,-6908,21152,-3109,7829,23266
1739652300.378207,-3944,-6560,21344,-2920,8358,23285
1739652300.3791084,-4316,-6104,21408,-2727,8901,23272
1739652300.3801086,-4472,-5588,21660,-2462,9559,23140
1739652300.3811083,-4708,-5120,21768,-2202,10196,22963
1739652300.3811083,-5220,-4704,21728,-1822,10693,22636
1739652300.3826983,-5472,-4448,21380,-1246,11196,22151
1739652300.3826983,-5868,-4484,21144,-525,11707,21572
1739652300.384142,-5652,-4372,20772,368,12353,20845
1739652300.3851519,-5092,-4164,20544,1350,13246,20087
1739652300.3851519,-4584,-4056,20224,2522,14288,19275
1739652300.4306576,-3980,-3972,19688,3691,15199,18466
1739652300.431565,-3728,-3804,19280,5001,16136,17616
1739652300.431565,-3340,-3612,19088,6237,17082,16742
1739652300.433033,-3252,-3232,19228,7256,18220,15809
1739652300.4340398,-3300,-3076,19432,8017,19204,14873
1739652300.4340398,-3364,-2968,19896,8546,20207,13742
1739652300.435489,-2868,-3652,20068,8880,21748,12059
1739652300.435489,-2668,-2944,19512,9122,22359,11195
1739652300.4369276,-2960,-2228,19592,9130,22795,10744
1739652300.4380236,-2072,-1732,19988,8782,23599,10502
1739652300.4380236,-2292,-1532,20152,8339,24061,10275
1739652300.4390643,-2064,-1316,19764,7864,24173,10082
1739652300.4401662,-2884,-1424,19884,7256,23980,9779
1739652300.4401662,-2960,-968,19856,6253,23594,9737
1739652300.4420695,-2932,-1088,18968,5229,23476,9469
1739652300.4420695,-2828,-1080,18740,4433,23213,9030
1739652300.4430716,-3072,-632,18436,3095,22597,9181
1739652300.4441671,-3072,-284,18216,1672,22100,9354
1739652300.4450705,-1960,-472,17588,418,22196,9240
1739652300.551575,-2060,-316,17112,-253,21954,9512
1739652300.551575,-1976,-284,16992,-998,21725,9770
1739652300.551575,-1916,-528,16328,-1577,21565,9892
1739652300.5529597,-1748,-588,15948,-1871,21533,9943
1739652300.5543265,-1596,-560,15756,-1963,21549,10054
1739652300.5543265,-1532,-308,15692,-1860,21485,10137
1739652300.5553985,-1252,248,15456,-1685,21247,10224
1739652300.5563776,-836,812,15544,-1443,21107,10206
1739652300.557362,-636,1452,15616,-1100,20932,10113
1739652300.557362,-168,1780,15244,-594,20934,9858
1739652300.5583344,-296,2116,15344,34,20681,9482
1739652300.559339,-412,2800,15140,603,20460,8785
1739652300.5603755,-292,3452,15304,1350,20874,7985
1739652300.5603755,-708,4440,15616,1822,21035,7510
1739652300.5613332,-996,5400,15680,2192,21225,7052
1739652300.5623343,-932,6088,15724,2482,21394,6603
1739652300.563334,-808,6172,16044,2838,21840,5993
1739652300.563334,-468,6240,16120,3288,22439,5318
1739652300.564334,-256,6452,15960,3775,23035,4607
1739652300.5654285,-36,6672,16140,4237,23724,3674
1739652300.5654285,24,6896,15744,4587,24411,2691
1739652300.5670166,48,6876,15784,4659,25100,1962
1739652300.5670166,-20,7208,15736,4689,26016,744
1739652300.5682554,144,7100,15460,4676,26989,-447
1739652300.5682554,68,7100,15404,4524,27832,-1471
1739652300.5697737,60,7040,15092,4288,28512,-2452
1739652300.5708032,312,7084,14780,4136,29242,-3300
1739652300.5717783,720,7248,14644,3849,29643,-3938
1739652300.611068,1220,7268,14328,3569,30237,-4725
1739652300.611068,1744,7176,13864,3245,30797,-5641
1739652300.6120691,2324,7036,13488,2907,31317,-6545
1739652300.6120691,9184,3872,8736,43,32767,-13134
1739652300.6135745,9960,3476,8124,424,32767,-13562
1739652300.6146178,10568,3060,6908,1048,32767,-14029
1739652300.615585,10500,2076,6004,2266,32767,-14443
1739652300.615585,10052,1196,5248,3840,32767,-14339
1739652300.6166341,11396,1788,5260,5228,32767,-15579
1739652300.6177397,12680,808,3620,7079,32767,-16650
1739652300.6177397,12268,132,2736,8959,32767,-16978
1739652300.619221,11988,-416,2252,10276,32767,-17044
1739652300.6202276,12520,-940,2112,11380,32767,-17422
1739652300.6212268,12112,-1480,556,13293,32767,-17714
1739652300.6212268,13624,-2096,-176,14680,32767,-17752
1739652300.6223116,14104,-2488,-756,16397,32767,-17935
1739652300.6232276,14360,-3420,-2108,18009,32767,-18174
1739652300.6232276,13968,-3780,-2952,19983,32767,-17954
1739652300.6243641,13476,-3780,-2468,21666,32767,-17472
1739652300.625371,13284,-3548,-2104,23116,32767,-16948
1739652300.6264718,13168,-3028,-2480,24409,32767,-16631
1739652300.6273692,13092,-2492,-2288,25643,32767,-16240
1739652300.6283703,13052,-1668,-2412,26714,32767,-15948
1739652300.6283703,10436,-328,-2396,27420,32767,-15670
1739652300.6294987,10404,-612,-2056,28381,32767,-15813
1739652300.7305918,10340,-892,-904,28833,32767,-15819
1739652300.7318099,11276,-220,-336,28724,32767,-15939
1739652300.7318099,10124,828,-420,27998,32767,-17196
1739652300.7329311,9364,1380,-628,27289,32767,-17713
1739652300.7329311,8244,2676,-592,26327,32767,-17370
1739652300.7342362,8576,2804,-252,25500,32767,-17169
1739652300.7352412,5464,4504,-448,25027,32767,-16814
1739652300.736245,6744,3776,1168,24345,32767,-16978
1739652300.737243,6112,3120,1480,23815,32767,-16922
1739652300.737243,6252,3232,2264,22821,32767,-17314
1739652300.7383592,5624,3180,2680,21559,32767,-17642
1739652300.7392704,5576,2836,2420,20430,32767,-18376
1739652300.7402735,6708,2188,1724,19628,32767,-19550
1739652300.7402735,7464,1288,916,19230,32767,-20804
1739652300.7415512,7840,572,548,18940,32767,-21820
1739652300.7415512,8276,-48,788,18697,32767,-22707
1739652300.7425554,10360,112,1704,18473,32767,-23347
1739652300.7437847,9888,-556,1188,18461,32767,-24134
1739652300.7447932,9604,-1324,672,18836,32767,-25121
1739652300.7447932,9984,-2144,228,19450,32767,-25991
1739652300.7457883,12800,-3152,780,19842,32767,-26516
1739652300.7470663,14796,-3864,740,20046,32767,-26703
1739652300.7481093,16744,-5364,476,20036,32767,-26517
1739652300.7481093,18248,-6764,-264,20141,32767,-26367
1739652300.749361,18024,-9680,-1396,20429,32767,-26414
1739652300.7503703,18336,-10572,-3352,21016,32767,-26066
1739652300.7503703,18972,-11492,-4792,21760,32767,-25412
1739652300.7517674,18908,-11600,-5888,22777,32767,-24765
1739652300.752772,18848,-12176,-6540,23634,32767,-24053
1739652300.752772,18304,-12904,-6404,24497,32767,-23494
1739652300.754123,16228,-16580,-4788,20898,30689,-22222
1739652300.7551396,16692,-17004,-5420,19837,29830,-21839
1739652300.7551396,15744,-16600,-6204,18620,28795,-21658
1739652300.7571707,15456,-16304,-7436,17380,27761,-21212
1739652300.7571707,15744,-16368,-8636,16255,26782,-20593
1739652300.791155,15876,-16364,-9560,15231,25892,-19891
1739652300.791155,16104,-16632,-10696,14560,25148,-19102
1739652300.792324,15544,-16428,-11520,14220,24338,-18293
1739652300.792324,14980,-16712,-12164,14392,23459,-17742
1739652300.793802,14716,-17016,-12304,14829,22674,-17174
1739652300.7948093,13428,-16884,-12480,15740,21618,-17056
1739652300.7948093,12760,-17040,-11832,16628,20598,-17098
1739652300.7962112,12340,-16880,-10736,17369,19636,-17198
1739652300.7972171,12356,-17120,-9704,17797,18711,-17355
1739652300.7983172,12784,-17552,-8772,18133,17836,-17468
1739652300.7983172,13492,-18548,-8396,18475,17072,-17587
1739652300.7992172,14196,-19424,-8036,18721,16072,-17474
1739652300.8002176,14560,-20796,-8120,18999,15233,-17519
1739652300.8023088,15260,-21860,-8144,19264,14639,-17584
1739652300.8514993,15892,-22788,-8104,19268,14429,-17588
1739652300.8514993,16852,-23876,-7804,19150,14578,-17347
1739652300.8525066,16792,-24284,-7360,18758,14539,-17165
1739652300.853508,16516,-24060,-5880,17999,14508,-16857
1739652300.853508,16728,-24612,-5468,16970,14268,-16532
1739652300.8545148,16932,-25064,-5192,16057,13966,-16001
1739652300.8555195,16840,-25080,-5440,15075,13522,-15317
1739652300.8565059,16964,-26080,-5520,14384,13406,-14557
1739652300.8575084,16476,-26564,-5864,14042,13276,-13937
1739652300.8575084,15628,-26272,-5612,13730,13134,-13396
1739652300.8595154,14932,-25840,-5472,13344,13149,-12935
1739652300.8595154,14328,-25144,-5400,12868,13404,-12517
1739652300.860505,13912,-24424,-4956,12344,13410,-12091
1739652300.8615108,13368,-23864,-4660,11631,13535,-11924
1739652300.8615108,13132,-23228,-4220,10786,13373,-11623
1739652300.8625073,13028,-22464,-3976,9782,13059,-11317
1739652300.8635442,12892,-21812,-3832,8675,12519,-11088
1739652300.8645084,12836,-21208,-4148,7566,12276,-11020
1739652300.8655066,12364,-21132,-4640,6689,11485,-10884
1739652300.8655066,11828,-20732,-4636,5685,10751,-10985
1739652300.8670108,11364,-20816,-5052,4534,10017,-11296
1739652300.868075,10996,-20736,-5080,3218,9344,-11675
1739652300.868075,10716,-20736,-5028,1756,8716,-12179
1739652300.9104729,10552,-20780,-5016,75,7980,-12802
1739652300.911356,10788,-20900,-5028,-1962,7303,-13389
1739652300.912548,11340,-21828,-5268,-4045,6753,-14010
1739652300.912548,11532,-22984,-5828,-5915,5987,-14549
1739652300.913988,11820,-23940,-6048,-7414,5298,-14999
1739652300.913988,12324,-24852,-6548,-8465,4656,-15198
1739652300.9151504,13232,-25864,-7392,-9010,4191,-14904
1739652300.9161584,14328,-26792,-8424,-8923,3930,-14346
1739652300.9172404,14600,-27296,-9380,-8212,3835,-13729
1739652300.9172404,16796,-28636,-10392,-7058,4335,-12648
1739652300.918158,16812,-28692,-11104,-5702,5113,-11532
1739652300.9195602,17204,-28852,-11320,-3965,6017,-10436
1739652300.9205668,15268,-29232,-12328,-2149,5906,-10107
1739652300.9205668,14952,-30436,-12220,-249,6524,-9575
1739652300.9216306,17304,-28396,-14160,1900,6893,-8997
1739652300.9227529,18440,-31324,-13368,4342,7495,-7822
1739652300.9227529,17112,-27668,-15644,7256,7317,-6640
1739652300.9243405,16724,-26152,-15400,10548,8066,-6246
1739652300.9254506,14276,-24748,-15752,13418,8195,-5936
1739652300.9711506,14372,-24440,-14888,16151,8455,-5564
1739652300.9711506,14028,-23640,-13504,18286,8691,-5051
1739652300.9721558,12900,-23156,-11916,19672,8827,-4780
1739652300.9721558,11916,-22736,-9836,20388,8651,-4723
1739652300.9735408,11192,-21908,-7928,20471,8113,-4832
1739652300.9745495,10748,-21436,-6436,20011,7398,-4941
1739652300.9756358,10544,-20660,-5420,19116,6579,-5186
1739652300.9756358,10548,-20368,-4580,17995,5900,-5376
1739652300.9767385,10480,-20272,-3384,16717,5068,-5568
1739652300.9778101,10668,-19988,-2284,15430,4090,-5736
1739652300.9778101,11028,-19592,-1488,13909,2848,-5520
1739652300.9799545,11808,-19560,-1212,12358,2064,-5283
1739652301.0309937,12436,-19644,-884,11114,1535,-5095
1739652301.0319393,12888,-19656,-748,10056,1220,-4946
1739652301.0319393,13208,-19612,-300,9113,963,-4780
1739652301.0329387,13520,-19472,-108,8324,564,-4560
1739652301.0329387,13836,-19308,308,7672,169,-4277
1739652301.034271,14020,-19096,316,7238,-137,-4040
1739652301.0352817,14348,-18948,448,6990,-312,-3777
1739652301.0352817,14684,-18568,508,6973,-437,-3377
1739652301.0366092,14584,-17896,432,7076,-461,-2998
1739652301.0377018,14548,-17496,560,7278,-273,-2690
1739652301.0386145,14884,-17064,808,7661,-109,-2320
1739652301.0386145,15044,-16460,824,8280,141,-1973
1739652301.0396142,14768,-16124,756,8995,531,-1671
1739652301.0407815,14352,-15268,1140,9867,790,-1442
1739652301.0407815,13812,-14524,1276,10832,1156,-1283
1739652301.0427876,13320,-13800,1688,11721,1560,-1251
1739652301.0427876,13152,-13288,2036,12603,1815,-1260
1739652301.044112,12152,-12680,2608,13409,2193,-1517
1739652301.090414,11888,-12228,2928,14010,2594,-1718
1739652301.0913486,11408,-11728,3280,14444,2996,-2011
1739652301.0913486,10812,-11500,3864,14610,3476,-2373
1739652301.0925324,10616,-11400,4408,14508,3892,-2837
1739652301.093539,10232,-11448,5128,14127,4266,-3321
1739652301.094636,9872,-11420,5644,13483,4501,-3851
1739652301.0955377,9692,-11292,6176,12635,4756,-4405
1739652301.0955377,9764,-11392,6328,11611,4915,-4870
1739652301.0970361,9652,-11416,6764,10346,4885,-5354
1739652301.0970361,9936,-11572,6604,9005,4890,-5797
1739652301.0990434,10500,-11612,6332,7776,4997,-6189
1739652301.0990434,10760,-12112,5444,6615,5130,-6593
1739652301.1001055,10960,-12248,5892,5532,4782,-6918
1739652301.1001055,11580,-12484,5568,4466,4341,-7190
1739652301.1010413,12040,-12640,5112,3554,4063,-7485
1739652301.102041,12556,-12756,4612,2693,3786,-7622
1739652301.1031446,12780,-12760,4264,1899,3603,-7696
1739652301.1040459,13188,-12904,4148,1148,3415,-7653
1739652301.1050427,13376,-12892,3876,431,3306,-7606
1739652301.1050427,13736,-12960,3900,-181,3086,-7487
1739652301.106114,14132,-12964,3904,-702,2768,-7417
1739652301.107157,14568,-13112,3888,-1110,2320,-7275
